Acc_X,Acc_Y,Acc_Z,Gyr_X,Gyr_Y,Gyr_Z,Mag_X,Mag_Y,Mag_Z,Posture
0.00,0.00,1.00,-0.24,-0.18,-0.18,26.09,23.74,-32.89,1
-0.00,-0.00,1.00,-0.12,-0.24,-0.06,26.15,23.49,-31.69,1
0.00,0.00,1.00,-0.12,-0.24,-0.06,26.14,23.45,-31.80,1
-0.00,-0.00,1.00,-0.06,-0.18,-0.06,26.04,24.15,-32.87,1
0.00,0.00,1.00,-0.31,-0.12,-0.06,26.56,23.34,-31.05,1
-0.00,-0.00,1.00,-0.18,-0.24,-0.18,26.64,23.49,-32.21,1
-0.00,-0.00,1.00,-0.18,-0.24,0.06,26.64,23.83,-33.07,1
0.00,0.00,1.00,-0.12,-0.31,0.00,26.03,23.49,-31.97,1
0.00,-0.00,1.00,0.00,-0.37,-0.24,25.82,23.96,-33.09,1
0.00,0.00,1.00,-0.37,-0.37,-0.18,25.51,23.60,-32.71,1
-0.00,-0.00,1.00,-0.24,-0.18,-0.06,25.63,23.86,-32.56,1
-0.00,0.00,1.00,-0.12,-0.43,-0.18,25.88,23.45,-32.67,1
0.00,-0.00,1.00,-0.24,-0.31,0.00,25.90,23.75,-32.95,1
-0.00,-0.00,1.00,-0.24,-0.24,-0.06,25.85,24.30,-33.28,1
0.00,0.00,1.00,-0.18,-0.18,-0.12,26.26,24.38,-32.24,1
-0.00,-0.00,1.00,-0.24,-0.18,0.00,25.89,23.62,-32.57,1
-0.00,0.00,1.00,-0.31,-0.18,-0.18,25.68,24.01,-32.04,1
0.00,-0.00,1.00,-0.31,-0.31,-0.31,25.46,23.93,-32.98,1
-0.13,-0.00,0.95,-0.85,2.32,29.97,25.32,23.33,-31.98,1
-0.00,-0.03,0.99,3.42,-3.72,-9.64,26.46,24.39,-33.95,1
-0.01,-0.01,1.03,4.39,-11.72,-3.23,25.61,25.79,-34.33,1
0.00,-0.06,0.97,53.04,10.80,-2.38,24.19,27.83,-33.97,1
-0.12,-0.08,1.00,-0.98,-30.58,3.91,23.27,28.19,-33.42,1
-0.06,-0.13,1.05,-24.84,29.48,21.18,23.32,28.30,-33.46,1
0.02,-0.06,0.96,-29.17,41.99,15.75,25.20,25.60,-35.30,1
0.06,-0.04,0.97,-8.42,-3.36,34.91,27.71,21.73,-34.42,1
0.06,-0.02,0.97,-19.47,-4.88,34.00,28.31,18.70,-34.86,1
0.08,0.02,1.00,2.26,16.36,1.10,28.16,17.31,-35.73,1
0.03,-0.02,1.08,12.57,0.37,1.46,28.49,17.16,-36.01,1
0.10,-0.01,0.95,8.67,10.25,4.70,28.96,18.38,-35.45,1
0.08,-0.02,0.93,0.73,-7.51,12.70,29.41,17.49,-34.62,1
0.01,-0.00,1.01,-0.98,-2.87,11.84,29.61,16.27,-34.94,1
0.06,-0.00,1.04,19.29,0.49,3.54,28.82,15.84,-34.39,1
0.05,-0.06,1.00,1.04,-1.22,2.01,28.89,16.80,-37.07,1
0.07,-0.04,0.97,-7.87,3.42,0.06,28.98,16.71,-36.08,1
0.12,0.01,0.95,-30.40,5.55,2.87,29.53,14.90,-36.28,1
0.08,0.01,0.98,15.93,1.10,11.84,29.28,13.27,-36.36,1
0.08,0.01,1.00,4.33,1.40,1.77,29.37,13.95,-36.33,1
0.07,-0.02,0.98,2.99,3.36,2.81,28.66,14.11,-36.02,1
0.09,0.01,1.00,0.98,-5.92,-16.36,28.71,13.67,-36.10,1
0.05,-0.01,1.00,-11.84,-0.98,-40.34,29.05,14.60,-37.43,1
0.07,0.04,0.96,-20.08,-15.14,-24.11,28.38,15.50,-36.12,1
0.03,0.03,0.98,2.69,-9.34,-26.79,28.38,16.04,-39.03,1
0.06,0.01,0.99,14.47,-2.81,-19.41,27.75,17.94,-38.29,1
0.05,0.01,1.02,-0.79,5.55,-14.40,27.06,19.89,-37.05,1
0.05,0.01,1.05,-0.37,3.48,-20.14,27.27,20.50,-36.85,1
0.05,-0.02,1.05,-7.20,-7.02,-16.60,27.86,20.57,-36.72,1
0.06,0.03,0.96,0.06,-8.48,-12.33,26.44,20.36,-37.76,1
0.07,0.01,0.98,1.40,-0.79,-6.96,25.82,21.22,-38.88,1
0.03,-0.01,1.04,3.60,-3.48,-10.25,26.00,22.06,-37.65,1
0.03,0.00,1.01,0.37,4.82,-10.01,25.78,22.97,-37.76,1
0.06,-0.00,1.03,0.67,5.07,-12.70,25.63,22.78,-37.81,1
0.06,0.02,0.97,-2.93,1.04,-13.06,26.23,23.08,-37.77,1
0.01,-0.00,1.00,-3.97,0.43,-18.80,25.76,23.71,-36.96,1
0.05,-0.01,1.01,10.44,-7.45,-12.39,25.77,25.13,-37.08,1
0.08,0.01,0.96,-11.96,7.45,-10.01,24.80,26.10,-37.16,1
0.03,0.01,0.99,0.55,-12.27,-13.37,24.22,26.50,-37.71,1
0.03,-0.01,1.02,2.87,-4.88,-5.68,23.18,27.39,-38.27,1
0.03,-0.01,1.02,-0.92,-1.46,-6.47,23.63,27.09,-38.06,1
0.01,-0.00,0.97,-7.39,8.36,-9.58,23.27,27.17,-38.37,1
0.04,0.00,1.01,-5.92,5.74,-12.57,23.30,26.56,-38.24,1
0.04,-0.00,1.00,1.46,-4.46,-8.42,23.91,27.10,-37.55,1
0.05,-0.00,1.02,-0.43,-6.29,-15.75,22.84,27.55,-38.40,1
0.05,-0.01,1.02,-0.43,7.14,-7.93,22.24,28.36,-38.62,1
0.04,0.02,0.99,-1.83,0.79,-8.97,22.66,28.16,-38.56,1
0.06,0.01,0.97,2.50,3.36,-8.06,21.94,28.60,-38.23,1
0.04,0.00,0.98,5.00,-1.83,-8.36,22.86,28.96,-37.65,1
0.06,-0.01,1.01,0.67,-0.55,-6.77,21.81,29.69,-37.77,1
0.05,0.00,0.99,0.55,-2.50,-11.54,21.79,29.72,-38.28,1
0.05,0.01,1.00,-0.37,-1.40,-17.03,20.95,30.53,-38.54,1
0.05,0.01,0.97,-2.08,2.56,-13.12,21.08,30.65,-38.43,1
0.06,0.00,0.99,2.99,-2.75,-6.47,21.20,30.65,-37.84,1
0.04,-0.02,1.00,8.91,-10.62,-8.36,20.32,31.49,-38.11,1
0.01,-0.02,1.01,2.38,0.24,-10.31,19.25,32.48,-38.35,1
0.04,-0.00,1.00,0.00,0.43,-12.45,19.19,32.51,-39.18,1
0.05,-0.02,0.98,-5.92,3.42,-2.08,19.10,33.20,-37.60,1
0.04,0.01,1.00,-0.43,-0.79,-2.93,19.03,32.67,-37.68,1
0.04,-0.01,1.02,-5.68,1.46,-4.64,18.99,31.88,-38.05,1
0.04,0.02,1.00,-0.49,-1.34,-11.29,19.48,32.46,-37.77,1
0.07,0.03,0.93,-10.38,10.62,-15.69,18.99,32.68,-38.46,1
0.02,0.02,1.00,0.18,-2.32,4.52,18.93,32.25,-38.71,1
0.07,0.01,1.04,-8.48,5.43,25.02,19.46,32.35,-38.53,1
0.07,0.05,0.97,-1.46,5.49,22.52,20.06,31.01,-36.54,1
0.04,0.05,0.99,2.44,-6.90,40.53,21.04,29.00,-37.98,1
0.04,0.03,1.02,5.74,-8.61,23.99,21.37,28.64,-37.89,1
0.04,0.01,1.00,17.33,-8.06,26.73,21.19,28.48,-39.09,1
0.02,0.00,0.99,0.98,4.33,17.15,20.78,28.22,-38.68,1
0.03,-0.00,1.01,2.08,3.85,12.45,21.89,28.14,-36.73,1
0.04,-0.01,1.00,-1.22,0.31,16.48,22.92,27.81,-37.89,1
0.05,-0.00,1.01,-6.77,11.35,20.94,22.99,26.76,-37.39,1
0.12,0.02,0.97,-3.97,10.19,41.38,25.65,24.66,-37.55,1
0.08,0.00,0.98,8.91,-8.00,28.81,26.77,22.84,-36.68,1
0.04,-0.00,0.99,6.84,-9.16,23.07,26.60,21.85,-36.93,1
0.06,-0.00,1.00,-0.73,6.53,16.60,26.66,21.50,-38.00,1
0.07,0.00,0.99,-0.18,-4.64,16.54,27.38,20.59,-38.40,1
0.06,-0.00,1.01,12.70,1.34,11.17,26.67,19.63,-38.01,1
0.10,-0.00,0.96,-2.44,-0.12,8.30,27.48,18.93,-37.95,1
0.10,-0.01,0.95,-8.12,-1.28,9.22,27.43,19.17,-36.51,1
0.06,0.00,1.00,-6.41,-4.76,11.78,26.43,18.01,-38.18,1
0.06,0.03,0.98,-1.40,-1.22,14.83,26.92,16.54,-38.24,1
0.06,0.04,1.00,-4.70,5.25,6.41,26.76,15.82,-37.96,1
0.07,0.05,0.99,-3.85,0.43,4.76,26.92,15.67,-37.89,1
0.08,0.07,0.98,-4.94,3.48,6.65,27.15,14.65,-38.26,1
0.07,0.07,0.99,-2.99,-1.77,11.72,27.33,14.04,-37.39,1
0.06,0.06,1.00,-0.31,1.34,7.63,27.49,13.62,-37.43,1
0.08,0.07,0.99,-1.71,0.43,7.20,27.70,13.44,-38.49,1
0.08,0.07,0.98,0.79,-0.37,18.31,27.36,13.17,-38.66,1
0.08,0.07,0.99,0.06,-1.34,11.35,27.14,12.07,-39.01,1
0.06,0.07,0.99,-1.16,-3.42,4.88,26.65,11.01,-38.27,1
0.07,0.05,0.98,1.04,0.49,0.31,26.75,11.52,-38.34,1
0.05,0.07,1.00,-0.06,-6.41,-3.48,27.14,11.16,-37.39,1
0.06,0.05,0.99,4.27,-1.04,-5.19,26.45,11.67,-38.22,1
0.06,0.04,0.99,5.13,-3.97,-13.06,26.55,12.12,-38.61,1
0.07,0.03,0.99,7.57,-0.61,-10.38,26.64,13.59,-37.96,1
0.04,0.03,1.00,-0.85,-1.16,-16.05,26.45,14.87,-37.90,1
0.05,0.04,0.99,-4.33,3.48,-9.70,26.65,14.81,-37.72,1
0.06,0.03,0.99,-5.07,3.97,-10.01,26.83,14.93,-39.14,1
0.06,0.03,0.99,1.53,0.61,-12.57,27.04,15.19,-37.37,1
0.06,0.03,1.00,1.59,-1.40,-10.86,27.36,15.49,-38.26,1
0.07,0.04,1.00,-2.93,-0.12,-8.18,27.42,15.58,-38.38,1
0.07,0.03,1.00,2.14,2.87,-8.91,27.82,16.66,-37.82,1
0.07,0.03,0.99,2.26,2.08,-12.21,27.51,16.59,-37.83,1
0.07,0.04,1.00,0.00,-0.49,-12.39,27.36,17.64,-37.54,1
0.08,0.03,0.99,1.04,3.78,-13.37,27.91,18.20,-37.34,1
0.10,0.02,0.98,2.99,4.09,-15.81,27.60,18.46,-36.72,1
0.10,0.01,1.00,-0.43,0.37,-13.85,28.34,20.03,-36.35,1
0.08,0.03,1.00,-0.85,-0.98,-14.16,28.28,21.09,-37.89,1
0.09,0.03,1.00,3.05,1.83,-11.66,27.42,21.17,-37.34,1
0.09,0.01,1.00,2.44,2.56,-8.97,27.27,21.64,-37.00,1
0.10,0.00,1.00,2.38,0.85,-8.67,27.61,22.49,-37.41,1
0.10,0.01,1.01,1.59,-2.20,-11.72,27.26,22.41,-37.46,1
0.08,0.00,1.01,-2.32,-5.07,-11.78,27.54,23.51,-36.33,1
0.06,0.03,1.01,-6.84,-1.28,-21.36,27.06,23.65,-37.45,1
0.08,0.01,0.98,-6.35,1.59,-9.03,26.68,24.49,-36.72,1
0.10,0.01,1.00,5.31,1.77,-8.30,26.23,25.54,-37.15,1
0.07,-0.02,1.01,15.50,-1.53,-9.89,26.14,26.72,-37.56,1
0.09,-0.03,1.01,13.00,-0.85,-22.16,26.33,27.82,-36.34,1
0.11,-0.04,0.97,3.78,4.03,-11.47,25.70,29.68,-35.63,1
0.11,-0.05,0.97,-2.38,0.85,-7.20,24.88,30.37,-36.29,1
0.10,-0.06,0.99,-5.31,2.20,-3.05,25.67,30.40,-35.47,1
0.09,-0.04,0.99,-9.03,-0.49,-5.80,25.61,30.68,-36.34,1
0.09,-0.04,1.01,-2.32,2.32,-5.92,25.50,30.14,-35.99,1
0.07,-0.04,1.00,3.23,0.55,-8.79,25.92,29.98,-36.72,1
0.10,-0.03,0.97,1.65,-0.98,-15.93,24.69,30.79,-35.55,1
0.08,-0.03,1.02,-7.93,-3.54,-12.45,24.57,30.66,-36.36,1
0.09,-0.02,1.01,2.20,1.34,-3.17,24.15,30.82,-35.82,1
0.10,-0.00,0.99,-2.62,2.87,-9.77,24.12,31.35,-36.35,1
0.10,0.01,1.00,-6.71,2.20,-10.13,23.43,31.57,-36.40,1
0.12,0.00,0.99,-5.07,3.85,-5.74,23.84,31.09,-36.10,1
0.11,0.02,0.98,6.16,-2.20,-4.09,23.97,31.81,-36.82,1
0.08,-0.00,1.00,0.18,-11.84,-5.80,23.49,32.14,-36.16,1
0.10,-0.00,0.98,-0.24,-8.42,-6.04,22.50,32.32,-36.43,1
0.08,-0.00,1.00,1.83,-8.73,-5.00,21.22,33.67,-37.28,1
0.03,-0.01,0.95,8.24,-5.62,-9.64,20.65,33.58,-37.05,1
0.03,-0.06,1.04,10.80,-11.23,-13.98,19.17,35.51,-37.06,1
0.02,-0.07,0.98,2.44,-9.46,-12.33,18.96,36.00,-36.38,1
0.01,-0.05,0.97,-7.02,-1.77,-11.60,17.71,37.04,-37.82,1
0.01,-0.03,1.00,-3.11,2.44,-4.76,17.30,36.79,-37.62,1
0.00,-0.04,1.00,-4.27,-1.04,-16.72,16.78,36.54,-38.43,1
0.02,-0.02,0.99,-1.59,-2.38,-11.41,16.35,36.66,-37.04,1
0.00,-0.03,1.02,5.68,6.35,-1.77,15.93,36.72,-38.68,1
0.01,-0.03,0.98,9.83,-2.08,-9.64,15.95,37.67,-37.96,1
0.02,-0.04,0.98,-9.22,2.69,-3.97,15.56,38.09,-37.12,1
0.06,-0.04,0.96,4.70,1.22,-13.06,15.48,38.23,-36.66,1
0.01,-0.05,0.99,3.23,-5.86,-38.39,14.77,38.99,-36.32,1
-0.00,-0.01,1.04,-3.85,11.11,-13.49,13.26,39.67,-36.99,1
0.02,-0.05,0.99,-15.38,-6.90,-11.90,12.44,39.21,-37.81,1
-0.00,0.01,0.92,-11.47,-1.46,-15.63,12.62,38.55,-36.69,1
-0.00,0.05,1.01,1.22,-14.53,-28.75,11.41,38.79,-38.29,1
-0.05,-0.10,0.93,2.32,-3.78,-24.29,9.22,39.55,-38.70,1
-0.03,0.02,0.99,-9.34,2.32,-24.11,7.76,39.38,-38.77,1
-0.05,0.15,1.00,1.46,-3.11,-10.68,6.97,39.48,-38.83,1
-0.05,0.01,1.01,-8.18,-2.01,-20.63,6.86,39.11,-38.42,1
-0.03,0.01,0.95,-3.36,2.81,-4.52,6.48,38.32,-38.87,1
-0.03,0.03,1.02,0.79,2.69,-12.08,5.97,39.07,-39.29,1
-0.01,0.05,1.00,-2.81,-0.98,-18.86,5.85,39.10,-39.22,1
-0.03,0.03,0.97,2.75,-1.95,-10.31,4.69,39.43,-40.54,1
-0.05,-0.00,0.97,-1.16,-5.80,-7.39,3.81,39.75,-38.71,1
0.03,0.07,0.94,-11.96,13.00,-15.01,3.60,38.64,-39.25,1
-0.03,0.04,1.02,-1.77,19.04,-3.97,4.96,38.82,-40.09,1
0.03,0.02,1.00,12.82,5.68,9.95,6.40,39.01,-38.34,1
0.02,0.03,0.98,-5.25,-2.99,-2.75,6.43,39.39,-39.47,1
-0.02,-0.01,1.01,-3.30,-2.20,-4.70,4.85,39.31,-38.50,1
0.03,0.10,0.99,-16.91,-3.17,-24.60,4.90,38.51,-38.40,1
-0.03,0.03,1.01,4.58,-12.57,-34.61,3.67,38.64,-38.62,1
0.01,0.09,0.99,0.49,-10.31,-29.97,1.68,39.26,-40.14,1
-0.02,0.09,1.01,5.07,-1.95,-12.27,0.90,39.31,-40.05,1
0.02,0.02,1.00,-1.65,-1.16,-18.01,0.26,38.72,-39.53,1
0.03,0.02,0.99,-3.23,17.09,-33.63,-0.32,37.79,-38.48,1
0.02,0.15,0.98,5.80,10.07,-37.90,-0.40,37.89,-39.61,1
0.03,0.03,1.00,16.17,-21.73,-32.47,-1.04,37.90,-39.66,1
0.01,0.04,0.97,13.24,-4.70,-14.28,-3.74,39.67,-38.59,1
0.02,-0.00,0.99,14.16,2.81,-14.71,-4.83,40.97,-38.31,1
-0.00,-0.03,0.99,-7.63,-8.30,-27.83,-5.96,41.43,-37.50,1
-0.04,-0.10,0.98,4.46,-10.62,-43.52,-7.50,40.84,-37.90,1
-0.01,0.04,0.97,14.89,-13.31,-41.02,-10.28,41.09,-37.73,1
-0.06,0.05,1.01,9.83,-10.01,-21.42,-12.33,41.38,-37.52,1
-0.07,0.05,1.04,8.12,-3.30,-15.14,-14.01,41.87,-36.38,1
-0.08,0.01,1.05,-8.91,1.53,-16.30,-14.36,41.82,-36.51,1
-0.04,0.00,1.01,7.08,-0.49,-19.96,-14.22,40.25,-36.22,1
-0.02,-0.02,1.04,-3.42,1.40,-18.37,-15.31,40.66,-37.44,1
-0.01,-0.03,1.00,-10.62,16.11,-13.00,-15.31,39.66,-36.89,1
-0.02,-0.02,0.97,2.62,6.41,-13.31,-15.38,37.74,-37.05,1
-0.00,-0.09,0.97,9.28,-1.04,-21.79,-15.77,38.48,-36.01,1
-0.04,-0.02,0.96,-5.13,-3.60,-9.22,-16.59,38.04,-36.57,1
0.01,-0.01,0.97,20.57,30.15,-11.90,-16.10,38.18,-35.66,1
0.01,-0.05,1.00,5.00,34.30,-5.00,-15.11,38.85,-37.94,1
0.09,-0.05,0.98,-5.37,3.66,-8.54,-13.04,39.03,-36.83,1
0.07,-0.04,0.99,-7.81,-22.89,-11.47,-13.66,38.12,-37.50,1
0.03,-0.05,1.03,-8.79,-12.33,-18.49,-15.37,36.96,-39.33,1
0.01,-0.02,1.00,-7.75,-16.30,-11.60,-15.75,36.29,-37.35,1
-0.00,0.02,0.99,-2.50,-2.99,-11.96,-17.50,34.57,-36.58,1
-0.00,-0.01,1.00,-0.79,-1.04,-11.23,-17.94,34.07,-37.99,1
0.01,-0.00,0.98,-3.48,-3.30,-9.83,-17.68,33.46,-37.88,1
0.04,0.01,1.00,14.34,4.03,1.59,-17.81,33.51,-37.22,1
-0.02,-0.05,1.06,3.91,8.67,-26.43,-18.51,34.66,-37.88,1
0.04,-0.06,1.00,3.36,-9.46,-15.08,-19.65,34.19,-37.92,1
-0.10,-0.03,0.87,-13.98,17.33,-17.46,-19.41,33.86,-38.04,1
0.02,-0.03,0.98,-13.37,-2.14,-16.60,-20.03,32.71,-38.05,1
0.01,-0.00,1.02,-8.91,1.22,-13.43,-19.51,31.73,-37.18,1
0.04,0.02,0.97,-6.41,3.54,-8.06,-20.32,30.09,-38.17,1
0.07,0.01,1.02,-8.06,5.80,-6.77,-19.36,29.04,-38.23,1
-0.04,0.02,1.01,13.31,0.55,-12.02,-19.19,27.87,-38.87,1
0.00,0.06,1.00,-8.79,-13.24,-16.54,-19.93,27.80,-38.49,1
0.03,0.08,0.98,-3.91,-7.39,-6.65,-20.59,26.43,-39.23,1
0.02,0.03,0.98,9.09,-2.01,-5.25,-20.48,27.28,-38.29,1
0.03,0.01,1.01,-2.26,-0.49,-21.85,-22.03,27.08,-38.75,1
0.01,0.03,1.00,13.06,-8.91,-43.03,-22.20,26.18,-37.24,1
0.01,0.00,0.99,-1.77,2.20,-24.78,-23.25,24.89,-37.60,1
-0.02,-0.00,1.02,-5.92,2.93,-22.03,-22.66,22.80,-38.23,1
0.02,0.02,0.97,-6.16,11.41,-14.83,-22.64,22.66,-37.71,1
0.05,0.05,1.01,-13.37,15.75,-11.66,-22.35,21.11,-39.54,1
0.05,0.06,1.01,-2.87,-3.17,-11.29,-21.45,20.26,-38.68,1
0.03,0.05,1.00,0.61,-9.09,-15.75,-22.79,19.69,-36.71,1
-0.00,0.04,0.98,4.76,-9.77,-15.32,-22.64,19.46,-39.04,1
-0.01,0.04,1.00,-1.83,-4.33,-16.36,-22.77,18.82,-38.31,1
0.03,0.04,1.01,-0.12,-3.36,-8.24,-23.47,18.07,-38.39,1
-0.01,0.04,1.00,5.62,-7.87,-10.50,-23.80,17.38,-36.19,1
-0.01,0.03,0.97,3.23,2.50,-24.29,-23.74,17.69,-37.68,1
-0.00,0.03,1.00,1.53,5.74,-16.97,-23.54,16.36,-37.76,1
0.03,0.05,1.01,-3.85,3.78,-8.54,-22.97,15.43,-37.60,1
0.04,0.04,1.00,3.54,1.53,-13.67,-22.40,14.76,-38.81,1
0.01,0.03,1.00,-1.46,-5.07,-18.25,-22.75,14.90,-38.28,1
0.01,0.04,1.03,-8.79,-7.26,-17.82,-23.16,13.89,-38.77,1
0.01,0.04,1.01,1.22,-6.29,-15.14,-23.91,13.10,-36.74,1
-0.01,0.04,1.00,-1.65,-5.19,-23.19,-24.45,12.37,-36.96,1
-0.04,0.03,0.99,-5.92,-4.27,-21.61,-24.04,11.34,-37.15,1
-0.02,0.07,0.99,-2.62,4.70,-18.80,-23.61,9.73,-36.65,1
0.00,0.06,1.01,1.04,1.28,-17.21,-22.55,9.03,-38.04,1
-0.01,0.05,1.02,5.37,7.14,-16.17,-22.83,8.17,-38.11,1
-0.03,0.05,0.99,-1.59,-5.74,-14.95,-21.68,7.60,-37.01,1
-0.04,0.05,0.97,-0.43,-10.80,-17.58,-22.46,6.84,-37.23,1
-0.02,0.05,1.03,-4.39,6.96,-15.08,-21.97,6.67,-38.44,1
-0.04,0.09,1.00,-3.54,3.54,-26.86,-21.22,6.12,-37.37,1
-0.01,0.07,0.97,0.18,-14.16,-17.82,-20.57,4.17,-37.67,1
-0.02,0.06,1.01,0.12,-3.17,-41.44,-19.78,3.36,-38.51,1
0.05,0.06,0.97,-2.93,-12.76,-23.19,-19.84,2.69,-37.95,1
-0.07,0.06,1.02,12.33,10.07,-14.28,-19.31,2.26,-37.62,1
-0.01,0.06,1.02,-4.94,11.66,-22.16,-17.36,1.72,-37.44,1
0.06,0.07,0.98,-6.96,13.55,-23.68,-15.83,1.07,-37.15,1
0.07,0.05,0.99,-1.10,-10.38,-6.04,-15.59,0.46,-38.07,1
0.01,0.05,0.99,3.72,-11.11,-6.23,-15.49,-0.06,-37.85,1
0.04,0.06,1.01,-4.76,-2.81,-6.16,-16.70,-0.11,-37.32,1
0.02,0.07,1.01,-1.16,-6.04,-9.46,-16.83,-0.88,-37.15,1
-0.00,0.06,0.99,5.98,-8.91,-8.67,-17.29,-0.89,-36.30,1
-0.01,0.05,1.02,2.87,5.25,-15.26,-17.36,-0.94,-37.00,1
0.02,0.03,0.99,12.45,14.95,-8.24,-16.75,-0.87,-37.46,1
0.04,-0.00,0.97,2.44,2.99,-11.05,-15.17,-0.22,-38.53,1
0.03,0.03,1.00,-3.48,-1.95,-4.70,-15.08,-1.06,-37.16,1
0.04,0.03,1.00,2.75,-7.14,0.06,-14.71,-1.39,-38.40,1
0.01,0.03,0.99,5.86,-2.14,4.09,-15.56,-1.15,-37.48,1
-0.01,0.00,0.98,-6.04,-0.92,19.59,-16.08,0.32,-37.60,1
-0.00,0.07,1.01,-6.47,7.02,29.72,-16.91,0.85,-38.73,1
-0.00,0.03,1.02,5.13,-2.38,21.67,-17.33,1.42,-38.27,1
-0.00,0.02,0.99,-2.62,-5.80,6.53,-17.70,2.04,-38.49,1
-0.00,0.01,1.01,-5.00,-1.53,0.85,-18.26,1.37,-38.12,1
-0.02,0.05,1.00,-0.43,-1.34,13.43,-18.86,2.05,-38.20,1
0.04,0.03,0.97,-0.24,-5.92,22.40,-19.41,2.34,-37.65,1
-0.04,0.03,1.00,-7.39,-4.15,7.87,-19.69,3.47,-36.83,1
-0.05,0.06,1.00,-3.30,-8.24,2.87,-20.81,2.62,-36.72,1
-0.05,0.05,0.99,1.65,1.04,11.29,-21.69,2.83,-37.28,1
-0.06,0.04,1.00,1.59,1.46,16.05,-21.22,3.91,-36.55,1
-0.03,0.03,0.99,0.31,-1.16,17.15,-22.28,4.33,-38.01,1
-0.08,0.02,0.96,6.96,-1.83,18.37,-22.42,5.49,-36.24,1
-0.05,0.04,0.98,0.06,5.55,13.98,-23.01,6.76,-36.39,1
0.00,0.03,1.00,4.09,9.46,18.49,-22.72,6.99,-36.47,1
-0.02,-0.00,0.99,12.88,5.55,24.72,-22.47,7.70,-37.49,1
-0.01,-0.00,1.01,11.54,3.66,22.95,-21.96,10.18,-38.29,1
-0.03,-0.02,1.00,4.21,0.37,31.49,-22.69,12.51,-36.89,1
-0.01,-0.04,1.00,8.18,-1.59,23.93,-22.92,13.93,-37.56,1
-0.05,-0.04,0.99,-4.94,-2.56,9.40,-23.54,14.37,-38.38,1
-0.04,-0.03,1.00,-3.97,3.17,7.93,-23.49,14.73,-37.77,1
-0.00,-0.03,0.98,-5.31,8.73,11.90,-22.61,14.89,-38.15,1
0.03,-0.01,1.02,-5.43,5.68,20.75,-21.83,14.56,-36.71,1
-0.02,-0.02,0.99,15.14,15.50,38.09,-22.16,15.25,-39.17,1
0.07,-0.02,0.99,2.14,2.08,12.63,-21.13,17.29,-39.09,1
0.07,-0.04,1.00,13.12,-7.02,7.26,-20.50,18.04,-38.09,1
0.03,-0.07,1.00,8.42,-10.38,15.26,-21.73,20.35,-38.53,1
0.03,-0.08,1.01,-0.73,-0.12,20.26,-21.47,21.64,-38.94,1
0.06,-0.06,0.99,-9.16,4.27,18.37,-21.12,22.16,-38.54,1
0.07,-0.06,1.01,0.43,-6.41,19.10,-21.03,21.89,-38.33,1
0.03,-0.06,0.99,6.59,-5.43,8.00,-21.23,22.71,-38.84,1
0.03,-0.07,0.98,4.33,-3.60,8.00,-21.51,23.66,-38.67,1
0.01,-0.07,1.00,-4.09,-2.99,5.55,-22.38,24.05,-38.43,1
0.05,-0.05,1.00,-7.81,2.20,7.51,-22.50,23.68,-37.84,1
0.05,-0.07,1.00,-2.38,0.31,7.32,-21.59,23.77,-38.90,1
0.03,-0.04,0.99,2.01,-8.73,11.96,-21.84,24.23,-37.68,1
0.01,-0.05,1.00,-1.28,-3.91,14.22,-22.29,24.58,-37.52,1
0.04,-0.05,1.00,-0.61,-2.26,16.36,-22.53,25.45,-38.05,1
-0.01,-0.04,0.99,-3.97,-2.50,13.85,-22.55,26.05,-38.53,1
0.03,-0.04,0.99,3.91,3.36,14.22,-21.94,26.42,-38.22,1
0.04,-0.05,0.99,-0.79,3.05,12.82,-21.23,27.33,-38.65,1
0.05,-0.04,1.00,3.30,1.10,15.81,-21.17,27.58,-38.71,1
-0.00,-0.06,1.01,3.23,-0.37,20.45,-20.53,28.65,-37.99,1
0.05,-0.04,0.98,-1.16,-0.73,14.40,-19.95,29.76,-37.67,1
0.03,-0.08,1.00,0.24,-8.42,15.75,-20.24,30.49,-37.43,1
0.01,-0.08,1.00,4.88,-4.03,11.84,-19.58,30.98,-37.46,1
0.03,-0.05,0.97,-1.77,-2.08,12.39,-20.20,31.98,-37.08,1
0.01,-0.05,1.00,-2.08,0.12,7.75,-20.23,31.14,-37.39,1
0.01,-0.06,0.99,-2.14,-2.50,7.87,-19.34,31.23,-37.84,1
-0.00,-0.04,0.96,6.47,1.28,6.41,-19.35,31.69,-37.28,1
0.03,-0.06,1.00,2.20,-1.83,-0.73,-19.34,32.31,-37.67,1
-0.00,-0.09,1.00,0.24,18.62,-16.17,-19.52,31.77,-37.05,1
0.05,-0.04,0.98,-5.13,5.98,-17.82,-18.60,31.38,-38.10,1
0.09,-0.07,1.02,-7.63,-1.83,-31.68,-18.54,30.76,-38.57,1
0.04,-0.06,0.98,-8.48,-8.12,-33.14,-19.24,29.27,-38.95,1
0.04,-0.05,1.01,-5.07,-5.98,-35.58,-20.45,27.33,-37.19,1
0.03,-0.04,1.00,-10.56,-1.22,-29.91,-21.48,24.35,-37.67,1
0.03,-0.01,1.00,-4.15,1.40,-23.13,-21.48,23.40,-39.01,1
0.00,-0.01,0.99,0.00,-7.26,-28.87,-21.62,22.00,-37.54,1
0.02,-0.01,0.99,-3.97,-10.68,-24.23,-22.74,20.26,-38.51,1
0.00,-0.01,1.02,2.20,-19.23,-24.41,-23.99,19.45,-37.07,1
-0.04,-0.00,1.00,-1.16,-3.78,-37.48,-24.96,18.86,-36.33,1
-0.04,0.01,1.00,-1.65,9.09,-33.75,-25.31,16.61,-37.26,1
-0.01,0.00,0.99,0.31,8.36,-21.79,-24.15,14.78,-38.68,1
0.00,0.01,0.97,2.81,2.99,-16.97,-22.64,13.04,-37.74,1
0.01,-0.02,0.99,-3.42,-0.06,-12.82,-22.56,13.09,-37.60,1
0.01,0.02,1.00,0.18,10.07,-9.95,-22.12,12.51,-38.92,1
0.06,0.01,0.98,-1.10,1.04,-11.60,-21.87,11.49,-37.74,1
0.02,0.02,1.00,-3.05,-4.88,-8.61,-21.81,11.04,-38.01,1
0.01,0.03,0.99,-12.51,-16.85,-14.16,-21.97,10.91,-37.28,1
-0.04,0.04,1.00,-8.36,-7.32,-14.53,-22.39,10.00,-36.61,1
-0.04,0.04,0.99,3.23,6.53,-14.89,-22.47,9.30,-36.93,1
0.03,0.04,1.03,-2.20,11.78,-8.85,-20.70,8.28,-37.35,1
0.03,0.08,1.00,-0.55,1.40,-10.13,-20.52,7.87,-37.78,1
0.04,0.03,0.98,-0.12,7.69,-10.74,-19.67,6.93,-39.36,1
0.03,0.03,1.00,1.16,-2.26,-12.33,-19.07,6.12,-38.96,1
0.00,0.03,1.00,1.71,0.00,-8.67,-19.24,6.29,-38.57,1
0.03,0.03,1.01,2.50,0.18,-9.77,-19.59,6.43,-39.82,1
0.04,0.04,1.01,-5.31,-0.92,-12.63,-18.88,6.23,-37.54,1
0.03,0.02,0.98,-6.16,-0.49,-18.92,-18.16,5.13,-38.44,1
0.04,0.05,0.98,-4.33,2.93,-27.83,-18.10,4.44,-38.49,1
0.10,0.05,1.00,5.43,-2.44,-23.99,-16.80,2.99,-37.63,1
0.04,0.03,1.01,1.83,-13.85,-28.99,-17.31,3.02,-37.50,1
0.01,0.03,1.00,0.61,-9.46,-21.79,-17.20,1.50,-37.35,1
0.01,0.04,1.00,0.73,2.56,-6.29,-16.65,1.46,-38.28,1
0.03,-0.00,0.99,20.69,6.90,-10.01,-16.13,1.68,-38.33,1
0.04,0.02,0.93,4.33,1.28,-18.01,-15.63,2.16,-39.48,1
-0.01,0.01,1.01,2.38,-0.61,-16.05,-15.36,2.62,-37.73,1
0.02,-0.03,0.99,3.85,3.05,-9.16,-15.48,2.27,-38.67,1
0.02,-0.02,0.97,17.82,-5.00,-16.97,-15.36,2.53,-39.64,1
-0.01,-0.07,1.01,0.24,-3.30,-5.98,-15.45,3.14,-39.92,1
0.00,-0.02,1.01,-24.29,19.47,-2.87,-14.38,2.14,-38.20,1
0.04,0.03,1.00,6.84,2.01,-3.91,-13.61,1.00,-38.11,1
0.04,-0.04,1.00,4.82,4.52,-3.23,-13.60,1.81,-38.29,1
0.03,0.03,0.98,9.03,-3.23,-17.52,-12.60,1.59,-39.50,1
0.04,0.02,0.97,-4.09,-4.33,-21.67,-12.46,0.74,-38.98,1
0.03,-0.03,1.01,-6.16,10.68,-12.82,-12.59,-0.01,-40.14,1
0.04,-0.03,0.99,4.46,-3.11,-6.47,-11.85,-0.05,-39.00,1
0.11,-0.27,0.97,-8.30,1.10,-5.31,-11.35,-0.20,-38.77,1
0.06,0.00,0.96,10.19,7.39,-10.38,-10.28,-0.39,-39.64,1
0.04,-0.03,1.00,13.31,0.31,-13.18,-10.13,-0.16,-40.26,1
0.04,-0.10,1.00,-4.58,17.33,-22.83,-9.57,0.12,-39.60,1
0.07,-0.02,1.00,3.42,-4.58,-10.80,-7.75,-0.45,-41.05,1
0.07,-0.04,0.98,-0.67,-2.32,-10.01,-7.15,-0.28,-41.80,1
0.06,-0.06,0.98,-13.61,-9.89,-12.82,-7.78,-0.82,-41.19,1
0.04,-0.03,0.99,0.73,-6.41,-8.06,-8.64,-1.10,-39.75,1
0.03,-0.06,0.99,-2.81,3.11,-10.13,-7.82,-1.67,-39.11,1
0.04,-0.05,1.00,-1.71,-0.85,-7.63,-7.45,-2.20,-40.15,1
0.04,-0.01,0.99,-9.64,4.94,-18.31,-7.01,-2.61,-40.53,1
0.06,-0.02,0.98,-10.93,2.62,-12.88,-5.36,-4.02,-39.72,1
0.05,-0.00,0.99,-7.57,3.72,-15.56,-3.99,-4.59,-39.88,1
0.06,0.01,1.01,8.12,7.32,-15.87,-3.37,-4.49,-39.48,1
0.08,-0.04,0.98,2.14,5.92,-15.87,-3.08,-4.57,-38.60,1
0.10,-0.05,0.99,1.83,5.55,-10.07,-2.14,-5.16,-38.94,1
0.09,-0.03,1.00,8.73,-3.17,-8.24,-1.50,-4.20,-39.29,1
0.07,-0.04,1.02,-0.79,-9.28,-9.46,-1.40,-4.46,-40.00,1
0.06,-0.06,1.01,-3.23,-6.71,-14.89,-1.44,-3.89,-40.12,1
0.06,-0.04,0.99,-7.26,-2.93,-15.75,-1.79,-5.14,-39.43,1
0.06,-0.03,1.01,-11.72,-9.22,-10.74,-1.06,-6.30,-37.71,1
0.03,0.01,1.01,-6.04,1.16,-5.31,-1.10,-7.42,-39.47,1
0.04,0.02,1.01,4.64,4.39,-17.46,-1.16,-7.40,-38.70,1
0.07,-0.03,0.99,9.77,2.38,-14.77,0.84,-6.81,-40.26,1
0.05,-0.04,0.96,-3.17,-1.40,-10.50,1.40,-6.42,-38.90,1
0.05,-0.02,0.98,-3.48,3.85,-15.44,2.32,-6.42,-40.16,1
0.07,-0.02,0.99,-5.92,2.99,-14.53,3.06,-6.67,-40.03,1
0.09,-0.09,1.01,-15.32,-5.55,-24.84,4.09,-6.57,-39.11,1
0.04,-0.01,0.97,1.71,-16.48,-21.97,4.24,-7.46,-38.85,1
0.02,0.03,1.01,3.91,1.04,-6.71,3.94,-6.90,-38.60,1
0.04,-0.04,0.97,5.74,4.46,-25.57,4.66,-6.77,-39.53,1
0.05,-0.04,1.03,-1.89,-0.37,-23.13,6.58,-5.90,-39.32,1
0.04,0.02,1.00,-10.07,-8.79,-24.41,7.09,-6.29,-38.77,1
0.03,0.02,0.98,8.67,-1.10,-18.37,7.42,-6.05,-37.95,1
0.04,-0.01,0.99,2.69,-5.98,-16.60,8.41,-5.07,-37.62,1
0.03,-0.09,0.98,3.11,-5.25,-14.53,8.53,-4.49,-38.76,1
0.02,-0.06,1.02,5.25,-2.01,-9.16,8.37,-3.26,-38.32,1
0.01,-0.02,1.00,0.73,0.18,-16.11,8.81,-3.64,-39.05,1
0.00,-0.11,0.97,-0.37,-1.46,-13.85,8.79,-3.39,-40.12,1
0.03,-0.10,1.01,-5.00,3.42,-10.19,9.52,-3.08,-40.01,1
0.00,-0.04,0.99,-5.00,-4.88,-6.59,9.83,-3.34,-40.32,1
-0.00,-0.03,1.00,-0.55,0.92,-9.03,9.62,-2.73,-39.28,1
-0.00,-0.06,0.95,1.46,-8.00,-10.80,10.62,-2.86,-39.65,1
0.02,-0.08,1.03,1.77,-9.58,-12.15,10.77,-2.36,-38.94,1
-0.02,-0.05,0.99,-5.98,0.92,-6.84,10.64,-1.95,-39.88,1
-0.05,-0.06,0.97,-1.40,-4.88,-12.08,10.63,-1.32,-38.44,1
0.01,-0.01,1.00,-6.10,7.51,-15.20,11.41,-2.19,-38.51,1
-0.02,-0.01,1.04,-13.67,0.12,-14.59,11.32,-2.27,-40.88,1
-0.04,-0.04,0.99,1.83,-6.23,-11.11,11.71,-1.86,-39.44,1
-0.06,-0.01,1.01,0.24,-4.27,-3.17,11.76,-2.26,-39.21,1
-0.06,-0.02,0.98,1.22,-0.12,-4.94,11.94,-1.61,-39.53,1
-0.06,-0.01,0.99,-2.56,-2.99,-20.45,12.15,-1.26,-39.56,1
-0.05,-0.04,0.98,0.43,-0.18,-30.88,13.28,-1.51,-40.80,1
-0.07,-0.07,1.02,10.44,-2.62,-14.47,14.01,-0.72,-40.66,1
-0.04,-0.05,1.02,1.53,-3.48,-9.83,14.60,1.01,-39.92,1
-0.02,-0.03,0.98,3.72,9.34,-22.28,15.20,1.44,-40.03,1
-0.01,-0.05,0.97,-3.54,2.62,-25.82,15.97,2.55,-40.28,1
-0.04,-0.04,1.00,-9.46,3.85,-15.32,16.89,2.61,-40.25,1
-0.02,-0.01,1.00,-1.77,-1.89,-24.96,17.40,2.01,-39.01,1
-0.02,-0.03,0.98,6.04,7.39,-13.24,17.71,3.20,-39.37,1
-0.10,-0.09,1.04,18.01,-11.17,9.70,16.92,4.49,-41.31,1
-0.07,-0.13,1.02,19.41,-7.57,-9.28,17.46,4.41,-40.88,1
-0.07,-0.11,1.00,8.12,-1.71,-13.92,17.36,5.71,-39.03,1
-0.03,-0.07,1.01,-19.65,19.78,-38.39,18.20,7.17,-40.55,1
-0.00,-0.09,0.94,-13.73,16.85,-42.72,20.81,7.37,-39.18,1
-0.00,-0.06,1.00,-2.99,12.15,-30.03,22.06,8.58,-38.99,1
0.02,-0.09,1.02,14.77,-2.81,-21.48,22.42,10.57,-38.65,1
0.04,-0.08,1.00,0.67,-3.54,-22.40,21.66,12.32,-39.69,1
0.06,-0.12,0.97,-16.60,-10.25,-22.52,21.85,12.12,-37.92,1
-0.01,-0.06,1.00,-26.18,-3.11,-20.81,21.56,11.10,-39.07,1
0.01,-0.05,1.00,2.87,11.05,-22.46,21.56,10.36,-38.59,1
0.03,-0.04,1.03,3.85,0.06,-5.74,22.83,11.72,-39.18,1
-0.01,-0.02,0.98,16.91,0.37,-10.07,22.66,12.70,-39.34,1
-0.02,-0.04,1.00,-1.28,-13.92,-7.57,22.92,13.65,-39.58,1
-0.01,-0.07,0.94,15.50,-9.40,-4.82,22.23,13.71,-38.34,1
-0.02,-0.08,1.06,15.56,3.60,-4.21,22.18,15.39,-41.06,1
-0.06,0.17,1.29,3.11,-10.01,-7.93,22.69,13.05,-38.51,1
-0.02,-0.01,0.97,2.50,0.43,-6.16,22.79,12.96,-37.52,1
0.00,-0.04,0.99,-0.79,3.78,-2.20,22.55,13.81,-36.96,1
0.02,-0.03,0.97,-5.43,-0.67,-9.58,22.84,13.53,-37.81,1
-0.01,0.00,0.99,1.71,-4.21,-25.27,22.51,13.16,-38.02,1
-0.00,0.00,1.01,10.99,2.44,-30.64,22.56,13.99,-39.17,1
0.02,-0.03,0.99,3.42,8.18,-30.21,22.62,16.20,-37.29,1
0.01,-0.04,1.02,8.30,4.58,-25.51,22.89,18.31,-38.48,1
0.00,-0.05,0.98,1.40,0.49,-21.79,23.58,19.06,-37.40,1
0.00,-0.07,1.00,-0.31,-2.38,-7.08,23.27,19.98,-37.52,1
0.02,-0.08,1.02,-0.37,-0.61,-7.57,23.06,19.64,-37.95,1
0.00,-0.05,0.99,-5.55,-3.54,-4.52,22.42,19.38,-38.34,1
-0.00,-0.06,1.00,8.54,-3.85,-13.49,22.53,19.68,-37.51,1
0.03,-0.11,0.91,-53.65,0.79,-17.70,21.69,21.06,-38.24,1
-0.03,-0.01,1.00,-9.77,-1.83,-10.50,21.73,19.37,-37.05,1
-0.01,0.02,1.02,-10.13,-8.24,10.19,22.03,17.77,-36.94,1
-0.01,0.00,1.00,0.55,-1.04,28.75,21.36,18.20,-38.11,1
-0.04,0.00,0.98,7.20,-6.29,35.28,21.47,16.59,-37.93,1
-0.03,0.00,1.03,1.28,0.37,26.18,21.46,16.50,-38.39,1
-0.03,-0.05,0.98,-6.90,-6.53,15.75,22.06,15.19,-37.73,1
-0.05,-0.01,0.99,5.31,3.54,19.96,21.48,14.38,-37.74,1
-0.04,-0.01,1.01,-11.90,-7.45,41.02,21.20,13.60,-37.44,1
-0.03,-0.01,1.01,-2.56,-2.56,28.81,20.48,10.72,-37.95,1
-0.07,-0.01,0.99,6.10,-1.59,19.78,20.14,9.79,-38.11,1
-0.07,-0.02,0.98,-5.07,-1.40,2.20,20.51,9.86,-38.09,1
-0.05,-0.00,1.00,-0.79,2.01,0.12,19.89,9.33,-37.49,1
-0.09,-0.01,1.03,-5.80,-0.67,13.00,21.06,8.70,-37.24,1
-0.03,0.02,0.98,-2.69,-0.06,21.06,20.89,7.09,-37.44,1
-0.07,-0.02,0.99,5.74,-2.14,17.40,20.47,7.08,-36.96,1
-0.06,-0.02,0.99,3.17,-2.38,9.16,20.35,7.02,-37.89,1
-0.03,-0.01,1.01,0.37,-0.85,-37.84,19.37,7.35,-36.88,1
-0.03,-0.01,1.00,10.50,6.29,-56.27,21.37,10.61,-37.02,1
-0.06,0.00,0.99,-0.06,3.05,-33.02,22.22,11.80,-36.93,1
-0.06,-0.02,0.97,-8.36,-3.23,-29.54,21.91,13.28,-37.49,1
-0.05,-0.04,1.02,-2.75,-1.59,-33.45,21.22,14.45,-37.49,1
-0.02,0.00,1.00,-10.44,-6.77,-16.30,21.95,14.60,-37.88,1
-0.06,0.01,0.97,5.55,-8.91,-19.71,21.31,14.50,-38.85,1
-0.09,-0.03,1.00,10.44,-5.07,-25.21,20.43,16.75,-38.84,1
-0.13,-0.01,1.03,17.03,2.44,-14.71,20.13,19.42,-39.05,1
-0.12,-0.05,1.00,6.96,-5.31,-6.47,20.03,21.35,-39.25,1
-0.11,-0.04,0.98,1.40,-2.14,-4.76,20.10,21.78,-40.61,1
-0.11,-0.04,0.99,-8.61,3.66,-3.60,19.60,21.79,-39.43,1
-0.12,-0.03,1.01,-0.92,3.66,-2.26,20.41,21.85,-39.39,1
-0.08,-0.04,1.00,-5.92,5.31,-5.43,20.85,21.40,-38.43,1
-0.06,-0.02,1.00,7.93,5.43,-29.24,21.13,22.24,-39.78,1
-0.09,-0.00,0.99,-12.88,7.93,-33.45,21.48,23.39,-38.72,1
-0.06,0.03,1.01,-29.36,0.06,-19.10,21.31,22.95,-39.05,1
-0.08,0.06,1.03,-2.08,-6.77,-9.70,21.58,21.58,-39.58,1
-0.08,0.09,1.01,8.00,-10.62,-9.77,21.12,22.35,-39.06,1
-0.07,0.03,0.97,-1.40,-5.31,-22.16,19.69,23.50,-38.94,1
-0.12,0.06,0.98,-0.49,-6.04,-21.97,19.09,24.90,-40.39,1
-0.13,0.09,0.99,0.92,7.81,-18.13,19.10,24.93,-40.26,1
-0.16,0.06,1.01,5.07,8.18,-27.83,19.34,26.35,-39.00,1
-0.07,0.04,1.00,4.76,5.92,-16.97,19.26,27.39,-38.72,1
-0.10,0.02,1.01,1.10,-10.80,0.73,18.09,27.69,-40.01,1
-0.10,0.05,0.99,-5.19,4.21,14.47,17.55,27.43,-40.34,1
-0.11,0.06,0.97,-1.77,8.61,36.87,18.91,25.89,-39.11,1
-0.08,0.04,1.01,4.52,8.61,50.72,20.15,24.72,-39.43,1
-0.07,0.04,1.00,-8.97,4.52,21.91,21.09,22.25,-39.05,1
-0.06,0.07,1.01,5.00,8.06,-13.92,21.47,22.12,-38.88,1
-0.06,0.04,0.99,13.73,10.86,-37.96,21.79,23.41,-38.51,1
-0.05,0.07,0.97,-3.23,7.45,-10.86,21.52,25.22,-38.49,1
-0.01,0.07,0.99,14.65,15.63,-13.31,23.27,24.62,-37.54,1
0.01,0.01,0.99,11.72,-7.63,-40.04,22.25,26.37,-37.74,1
0.03,-0.03,0.98,-1.77,-23.80,-17.46,20.52,28.76,-38.18,1
-0.02,0.02,1.00,-19.35,1.95,-36.07,18.63,28.98,-39.10,1
-0.10,0.02,1.00,-6.59,7.20,-14.95,18.62,29.82,-38.64,1
0.01,0.04,1.03,-12.88,23.62,-16.36,18.20,29.42,-38.33,1
0.03,0.08,0.97,-3.23,3.72,-17.21,20.09,29.00,-37.88,1
0.06,0.05,1.02,14.53,-19.23,-26.00,18.88,29.79,-37.95,1
0.03,0.03,1.02,-9.22,-1.83,-19.29,17.69,31.10,-37.54,1
-0.00,0.05,1.03,-10.25,-7.08,-22.46,16.65,30.94,-38.66,1
-0.02,0.07,1.04,-7.32,-17.52,-27.16,15.59,31.12,-37.77,1
-0.05,0.09,1.03,-6.90,19.96,-9.83,14.21,31.12,-40.32,1
0.03,0.14,0.97,-13.12,-5.86,-18.55,15.53,29.87,-38.71,1
-0.01,0.13,1.01,-2.62,-10.93,-16.24,14.83,29.36,-39.26,1
0.02,0.18,0.92,-16.91,-1.95,-15.87,13.83,29.75,-39.84,1
0.00,0.17,0.99,-15.63,0.49,-24.90,12.63,28.42,-40.08,1
-0.01,0.12,0.98,12.39,5.92,-9.83,12.40,28.80,-40.92,1
-0.02,0.16,1.01,-19.29,-12.33,-26.98,12.02,28.74,-41.72,1
-0.05,0.24,0.98,4.21,0.79,-14.34,10.91,27.80,-40.72,1
-0.04,0.27,0.95,5.55,-4.09,-30.09,10.30,28.99,-41.87,1
0.00,0.22,0.93,9.40,20.94,-9.70,9.97,30.51,-40.34,1
-0.09,0.09,0.96,6.65,-4.03,-23.80,9.96,30.98,-39.67,1
0.05,0.18,0.96,4.33,3.66,-3.60,10.06,32.24,-39.23,1
0.05,0.17,0.97,8.54,12.57,-27.22,10.29,33.11,-40.66,1
0.06,0.17,1.01,1.77,-0.61,-24.05,10.69,33.07,-39.98,1
0.08,0.15,0.99,20.14,-0.79,-26.79,9.39,34.17,-40.71,1
0.02,0.15,1.00,-1.65,-18.74,-19.71,7.40,35.83,-40.99,1
-0.01,0.09,1.01,14.59,-18.86,-18.86,4.38,37.11,-39.88,1
-0.01,0.02,0.96,33.87,-13.49,-32.47,3.48,37.78,-40.69,1
0.03,-0.03,1.00,1.77,5.13,-27.65,1.61,40.06,-39.93,1
0.02,0.02,1.02,-5.80,1.28,-24.35,1.15,40.58,-38.11,1
0.01,0.03,1.00,-5.92,3.30,-14.34,0.32,40.11,-39.14,1
0.01,0.08,1.02,-9.89,-15.50,-14.16,-0.51,39.42,-40.27,1
-0.02,0.14,0.99,-4.15,-0.67,-19.41,-1.94,38.26,-40.20,1
0.01,0.09,1.00,-10.93,4.58,-25.94,-2.67,37.62,-39.61,1
0.03,0.11,1.00,-1.04,7.32,-14.83,-3.26,36.74,-39.75,1
0.03,0.08,1.01,-0.06,-0.61,-0.98,-3.56,36.78,-39.93,1
0.03,0.10,0.99,15.44,4.39,10.62,-2.92,37.84,-40.33,1
0.03,0.08,0.98,-2.62,0.85,18.31,-2.60,38.68,-40.56,1
0.03,0.07,0.99,-4.70,1.89,10.99,-2.23,38.62,-39.69,1
0.03,0.10,0.99,-5.55,11.78,28.69,-1.73,37.94,-40.60,1
0.01,0.08,1.00,-0.55,-2.38,16.17,0.20,37.48,-40.06,1
0.02,0.11,1.01,1.89,-0.12,7.26,0.83,37.50,-40.43,1
0.02,0.08,0.99,6.53,3.72,3.05,0.88,38.31,-41.21,1
0.06,0.09,1.01,4.64,9.70,-1.34,1.07,37.90,-40.16,1
0.06,0.02,1.01,1.10,4.58,-3.97,1.20,38.43,-39.66,1
0.04,0.08,1.00,-3.42,-2.69,-11.78,1.28,38.39,-41.02,1
0.04,0.01,0.98,9.46,-1.28,-54.26,-0.52,38.78,-39.86,1
0.08,0.07,0.97,6.96,9.16,-48.71,-2.01,38.38,-40.14,1
0.06,0.05,0.98,-3.66,-5.49,7.08,-3.63,39.66,-39.67,1
0.00,0.06,1.00,-1.22,2.50,5.13,-2.92,39.31,-41.16,1
0.06,0.03,0.99,4.33,7.02,1.46,-2.00,39.87,-40.93,1
0.06,0.06,1.02,-8.42,-0.06,-24.11,-2.19,39.29,-40.33,1
0.05,0.07,1.03,-5.49,-5.43,-25.76,-3.71,38.78,-41.38,1
0.04,0.06,0.98,-2.62,0.92,-0.85,-4.96,38.73,-40.78,1
0.10,0.11,0.99,-6.29,-2.87,-11.66,-4.48,37.99,-41.77,1
0.09,0.06,0.98,4.52,1.10,-68.73,-5.35,37.85,-42.08,1
0.13,0.09,1.01,-1.83,21.18,-66.83,-6.81,37.44,-41.08,1
0.15,0.04,1.01,5.98,-5.31,-8.91,-8.11,37.82,-42.24,1
0.12,0.02,0.99,-5.62,-10.68,-14.28,-8.92,37.32,-40.99,1
0.20,0.10,1.01,-9.09,34.55,-28.20,-9.13,36.66,-41.67,1
0.20,-0.00,0.96,39.61,10.25,-64.82,-8.07,35.64,-42.30,1
0.23,0.11,0.97,-22.46,-13.12,-41.08,-9.51,35.74,-43.20,1
0.17,-0.03,1.00,-15.63,7.20,13.00,-10.86,35.62,-43.86,1
0.19,-0.01,1.01,-15.38,-1.95,0.37,-9.61,35.25,-42.18,1
0.20,0.03,0.98,-4.21,-1.28,3.42,-10.61,33.96,-42.33,1
0.21,0.05,0.97,-0.43,17.27,19.96,-9.97,33.70,-44.02,1
0.24,0.05,0.99,2.32,-4.64,11.05,-8.56,33.63,-43.80,1
0.22,0.04,0.97,-2.50,-0.61,-7.69,-8.95,34.13,-43.76,1
0.23,0.07,0.96,-3.42,12.21,-22.16,-9.09,33.41,-43.59,1
0.24,0.08,0.99,-9.46,-18.80,-16.05,-9.78,32.40,-44.67,1
0.18,0.07,0.97,-0.67,-18.01,-13.43,-10.97,32.48,-42.59,1
0.20,0.05,0.97,-1.40,-8.42,-41.44,-12.22,31.51,-43.40,1
0.20,0.09,0.99,1.71,-7.39,-34.67,-14.40,31.82,-44.08,1
0.16,0.03,0.97,15.08,-9.70,-4.52,-14.71,31.48,-42.70,1
0.13,-0.02,0.99,8.12,-0.49,-21.42,-15.11,32.54,-43.07,1
0.18,-0.01,0.98,-8.61,-7.20,-12.63,-15.87,33.02,-41.49,1
0.22,-0.07,1.02,10.62,32.84,-35.95,-15.98,32.51,-42.11,1
0.13,-0.09,0.98,-7.93,-26.37,-49.93,-17.05,31.35,-41.42,1
0.08,-0.02,0.97,0.12,-21.55,-33.14,-18.16,28.37,-41.71,1
0.14,-0.00,0.98,-9.52,-2.56,-24.72,-20.20,27.10,-41.63,1
0.13,-0.00,0.98,1.34,-13.73,-34.36,-21.18,26.04,-40.64,1
0.09,0.00,1.00,15.63,-20.57,-26.98,-22.51,25.48,-41.50,1
0.02,-0.00,1.00,-4.70,8.06,-19.41,-23.40,24.62,-40.97,1
0.09,-0.04,0.99,-8.48,18.01,-26.00,-22.24,23.01,-40.03,1
0.08,-0.02,1.00,-8.61,-3.36,-20.14,-21.90,21.01,-41.35,1
0.14,-0.03,1.00,-3.85,28.32,-11.05,-20.84,20.12,-42.04,1
0.12,-0.00,0.99,2.38,-5.49,-2.75,-20.13,19.95,-41.37,1
0.08,-0.04,0.98,12.08,-22.89,-15.32,-20.85,19.92,-43.19,1
0.08,-0.02,1.00,-4.15,-17.03,-44.62,-22.84,18.95,-41.55,1
0.08,-0.01,0.98,-10.93,9.40,-31.86,-23.07,16.37,-39.94,1
0.10,-0.01,0.98,5.43,0.31,-17.76,-22.74,15.63,-41.64,1
0.06,-0.03,0.99,8.97,-10.80,-12.33,-22.68,15.39,-41.96,1
0.02,-0.05,1.00,7.26,-4.21,-12.27,-22.42,15.80,-41.85,1
0.05,-0.06,1.00,-13.61,1.04,-15.56,-22.40,14.82,-42.69,1
0.09,-0.05,0.97,-7.39,12.08,-22.71,-22.00,13.96,-41.00,1
0.11,-0.06,0.99,2.87,15.63,-23.93,-21.22,12.81,-40.83,1
0.11,-0.04,0.98,2.01,3.48,-16.78,-19.96,11.18,-42.82,1
0.12,-0.06,1.01,7.63,-4.39,2.14,-19.60,11.84,-41.97,1
0.12,-0.07,0.99,-4.94,-21.18,4.88,-20.57,12.51,-41.91,1
0.05,-0.02,0.99,-16.91,-11.84,8.67,-22.25,11.72,-41.19,1
0.03,-0.00,1.00,-10.01,-3.66,16.66,-23.51,10.91,-40.31,1
0.04,-0.00,0.97,6.77,-0.31,20.81,-24.04,11.93,-40.58,1
0.05,-0.04,1.00,14.53,-3.36,20.39,-23.57,13.72,-39.67,1
0.03,-0.07,1.00,9.16,-1.77,13.31,-24.18,15.42,-41.13,1
0.07,-0.07,0.98,-0.18,-2.93,11.17,-23.95,16.21,-40.61,1
0.04,-0.08,1.00,-6.96,6.29,18.49,-24.02,16.89,-39.71,1
0.01,-0.06,1.01,-6.84,-6.59,9.95,-23.83,17.55,-39.86,1
0.03,-0.04,0.99,-5.25,-3.66,2.50,-24.30,17.97,-41.00,1
-0.01,-0.01,1.00,-25.45,5.74,2.32,-24.00,16.75,-40.86,1
0.01,0.04,0.98,-18.43,4.27,-4.39,-24.01,15.53,-39.18,1
0.02,0.04,0.99,-2.75,-7.69,-6.23,-24.26,13.49,-40.94,1
0.01,0.03,1.01,4.64,8.91,-9.28,-24.46,13.45,-39.77,1
0.06,0.02,0.99,-4.94,36.25,-27.28,-22.69,12.89,-42.82,1
0.13,0.01,1.01,-9.22,16.24,-23.56,-21.66,11.83,-42.58,1
0.13,0.03,1.00,-2.20,-10.50,-13.49,-19.47,10.31,-42.93,1
0.14,-0.01,1.00,24.54,-0.24,5.86,-20.26,10.79,-41.52,1
0.11,-0.01,1.00,3.36,-18.19,13.67,-20.90,12.63,-41.28,1
0.04,-0.03,1.00,-1.16,-11.29,22.71,-23.05,13.34,-41.13,1
0.05,-0.01,1.01,-6.04,0.43,16.54,-23.39,14.05,-40.33,1
0.07,0.00,1.00,-0.12,-0.98,24.90,-23.75,14.99,-39.58,1
0.06,-0.00,1.00,4.76,-3.23,24.60,-23.72,16.37,-40.21,1
0.02,0.01,0.99,0.61,-6.41,11.96,-24.22,17.03,-39.95,1
0.01,0.01,1.00,3.72,-0.61,12.21,-24.99,17.74,-39.49,1
0.02,-0.01,1.00,-1.46,4.33,0.98,-24.80,18.77,-40.43,1
0.04,-0.01,0.98,-0.31,0.73,-3.05,-24.34,18.01,-42.57,1
0.04,-0.04,1.02,1.22,1.77,-1.46,-24.01,18.38,-40.42,1
0.03,-0.02,0.99,1.95,1.40,-0.12,-24.16,18.21,-40.60,1
0.04,-0.04,1.00,2.69,-2.69,1.89,-24.73,19.40,-40.54,1
0.00,-0.03,1.00,4.76,0.79,14.47,-24.38,19.63,-40.10,1
0.04,-0.04,1.00,4.58,2.20,21.73,-24.12,20.01,-40.09,1
0.03,-0.03,1.01,0.06,-3.91,12.94,-24.16,20.97,-41.71,1
0.01,-0.06,1.00,5.62,-2.87,10.80,-24.07,22.33,-39.44,1
0.03,-0.04,1.00,1.95,1.34,0.18,-24.19,22.85,-40.50,1
0.04,-0.05,1.00,2.14,0.55,-1.53,-24.35,22.85,-40.06,1
0.03,-0.07,1.01,-1.89,2.01,-1.59,-24.10,23.00,-41.08,1
0.03,-0.05,0.99,-0.67,1.71,-1.77,-24.07,22.89,-39.92,1
0.03,-0.05,1.00,-1.65,1.89,-4.46,-23.63,22.46,-40.37,1
0.05,-0.06,0.98,1.22,3.36,-1.22,-23.01,22.02,-41.42,1
0.07,-0.05,0.99,2.20,-2.56,-0.55,-22.81,22.19,-40.65,1
0.04,-0.05,1.02,2.01,-4.70,-2.20,-23.57,22.40,-41.14,1
0.04,-0.05,0.99,-6.10,10.07,-10.74,-23.63,22.09,-40.77,1
0.09,-0.04,1.00,-15.08,18.86,-33.02,-22.68,21.68,-41.61,1
0.11,-0.02,0.99,-7.57,11.54,-15.99,-22.02,18.16,-41.42,1
0.11,-0.01,1.02,6.47,-7.08,-13.24,-20.79,16.80,-42.74,1
0.09,-0.05,0.99,5.31,-11.47,-15.01,-22.61,17.25,-41.71,1
0.09,-0.05,0.99,7.63,-15.50,-15.99,-22.61,17.52,-41.69,1
0.07,-0.05,0.98,10.93,8.97,-6.16,-23.43,17.54,-40.75,1
0.03,-0.03,1.02,1.89,-29.54,-9.70,-23.44,18.59,-41.06,1
-0.00,-0.08,1.01,-4.58,-8.18,-3.42,-25.51,18.15,-40.47,1
0.03,-0.06,1.00,-7.75,2.01,-17.27,-25.96,17.43,-39.73,1
0.00,-0.03,1.00,-15.87,20.08,-28.26,-25.44,15.47,-40.54,1
0.08,-0.04,0.99,6.04,4.82,-18.62,-23.46,13.38,-41.41,1
0.00,-0.03,0.99,-1.22,-5.62,-13.61,-23.13,14.34,-41.39,1
0.01,-0.09,1.03,7.26,2.93,-10.25,-23.27,14.04,-41.99,1
0.06,-0.04,1.00,8.91,12.70,-3.66,-22.18,13.64,-40.93,1
0.07,-0.08,0.97,-13.79,-0.61,-1.34,-21.91,13.88,-41.48,1
0.07,-0.04,1.00,-1.46,1.04,11.47,-21.74,12.67,-41.36,1
0.02,-0.08,1.02,17.21,-12.70,38.82,-21.85,13.55,-41.08,1
-0.01,-0.06,1.02,1.46,-2.81,39.98,-23.30,16.53,-40.65,1
0.05,-0.08,0.99,1.28,15.32,33.81,-22.94,18.36,-40.78,1
0.04,-0.06,1.01,-5.31,3.66,31.49,-22.19,18.18,-42.08,1
0.10,-0.05,0.97,-0.92,-5.37,28.14,-21.86,19.92,-41.47,1
0.09,-0.04,1.00,-3.60,-0.12,24.78,-21.44,21.39,-42.14,1
0.06,-0.04,0.99,-3.42,-0.55,35.58,-22.06,21.69,-42.21,1
0.03,-0.04,0.98,8.42,-8.67,21.91,-22.64,22.80,-42.94,1
0.05,-0.04,1.01,-1.10,-0.79,7.69,-22.44,23.91,-42.59,1
0.05,-0.03,0.99,2.62,-2.50,11.90,-22.60,24.65,-44.45,1
0.04,-0.05,0.99,1.59,5.00,19.78,-22.36,25.13,-42.10,1
0.03,-0.05,0.96,2.50,-2.93,32.90,-21.78,26.14,-42.83,1
0.10,-0.07,1.00,2.75,9.03,34.61,-21.13,28.38,-43.12,1
0.05,-0.03,1.01,4.27,0.73,19.47,-20.28,28.92,-43.96,1
0.07,-0.07,1.00,8.18,5.19,0.24,-19.56,31.24,-43.01,1
0.06,-0.08,0.99,3.66,2.69,22.71,-19.17,31.36,-42.55,1
0.13,-0.08,1.00,-4.94,7.69,14.95,-17.94,32.20,-42.16,1
0.13,-0.09,1.00,-8.18,4.64,13.98,-16.82,32.46,-43.82,1
0.10,-0.05,1.01,-14.40,-15.63,15.75,-16.98,31.10,-44.73,1
0.09,-0.02,1.01,-4.70,-23.38,21.30,-18.10,31.24,-44.51,1
0.08,-0.03,1.00,5.68,-0.43,20.69,-19.30,31.69,-42.82,1
0.05,-0.07,1.02,-0.92,3.30,32.10,-18.41,33.78,-43.20,1
0.05,-0.04,1.00,-0.06,-0.73,21.24,-17.10,34.44,-43.77,1
0.05,-0.03,1.01,-1.95,-2.08,24.11,-16.66,35.07,-43.47,1
0.07,-0.02,1.01,-10.99,0.85,22.03,-15.77,35.03,-42.58,1
0.08,0.03,1.00,-0.98,-3.78,14.10,-15.04,35.11,-42.43,1
0.02,0.01,1.00,-5.00,0.55,20.45,-14.77,35.46,-43.49,1
0.03,-0.00,0.98,6.59,0.06,21.61,-14.42,35.28,-43.13,1
0.03,-0.00,1.00,10.80,-3.11,11.23,-13.71,36.29,-42.66,1
-0.02,-0.00,0.96,10.80,0.12,19.35,-13.33,38.34,-43.23,1
0.07,-0.02,0.97,-2.87,3.85,28.20,-11.89,39.67,-42.97,1
0.08,0.06,1.00,-17.94,-4.33,21.91,-11.74,39.06,-44.30,1
0.09,0.09,1.02,-15.93,-6.35,39.06,-11.13,37.68,-45.41,1
0.03,-0.03,0.99,2.38,11.78,35.64,-10.60,38.55,-45.02,1
0.06,0.00,1.00,4.39,6.16,15.81,-8.90,40.43,-43.84,1
0.11,-0.04,1.02,21.42,4.70,8.79,-8.98,41.37,-44.65,1
0.05,-0.03,0.97,-12.27,-2.69,0.00,-8.23,43.13,-44.19,1
0.13,-0.01,1.02,-8.61,12.88,-11.11,-8.41,42.74,-44.51,1
0.09,0.08,0.97,-15.14,-0.31,4.52,-8.69,41.33,-44.21,1
0.19,0.05,1.00,-15.63,-9.40,15.81,-9.05,39.87,-45.86,1
0.11,0.07,0.97,8.00,2.93,23.68,-8.97,38.68,-45.35,1
0.04,0.02,0.99,3.36,-11.29,32.59,-8.07,39.20,-48.11,1
0.02,0.05,0.98,-15.26,-21.48,35.34,-7.43,39.69,-48.10,1
-0.02,0.14,0.99,-15.14,10.68,2.26,-7.70,38.29,-48.95,1
0.04,0.07,1.00,15.99,19.10,10.50,-5.99,38.50,-47.69,1
0.03,0.07,1.00,-8.48,1.04,22.28,-3.43,38.23,-47.75,1
0.05,0.07,0.96,9.58,34.24,16.54,-1.84,38.35,-48.86,1
0.11,0.12,0.96,-2.38,7.81,29.24,1.50,38.71,-49.90,1
0.11,0.01,1.00,-2.44,1.65,80.87,4.04,39.14,-48.51,1
0.14,0.12,0.98,7.14,-14.53,30.40,7.29,38.13,-49.98,1
0.12,0.10,1.00,18.98,6.65,10.07,6.79,38.35,-49.89,1
0.10,0.09,1.01,6.47,3.66,14.71,7.42,39.78,-49.72,1
0.11,0.03,0.98,13.37,7.08,23.50,8.98,40.61,-48.80,1
0.16,0.05,0.96,7.14,4.64,13.31,10.91,40.77,-48.60,1
0.14,0.00,0.99,-4.15,-6.84,-14.40,11.43,40.00,-47.55,1
0.13,0.13,0.99,-16.11,-40.59,-57.31,8.25,39.03,-49.32,1
0.03,0.06,1.02,8.00,-4.39,-53.28,2.20,38.40,-50.23,1
0.07,0.04,1.00,25.21,-5.92,-39.73,0.17,40.36,-49.80,1
0.07,-0.02,1.02,5.31,-2.08,-50.05,-1.34,42.02,-49.02,1
0.04,0.04,0.99,24.96,9.77,-27.89,-3.16,42.98,-49.24,1
0.07,-0.10,0.97,37.96,26.86,-30.46,-2.60,47.02,-47.09,1
0.11,-0.10,0.97,-44.86,13.79,-32.29,-1.82,46.06,-46.91,1
0.12,-0.04,0.97,-13.49,-1.34,-34.18,-2.11,43.54,-48.61,1
0.05,-0.04,1.02,-13.24,-31.37,-21.79,-5.35,41.80,-49.77,1
0.05,0.02,0.97,-5.25,-14.59,-18.80,-8.91,40.27,-48.97,1
0.07,-0.01,1.05,2.75,2.20,-18.49,-10.86,39.70,-49.65,1
0.05,-0.01,1.04,0.92,-1.40,-18.86,-11.21,39.49,-49.55,1
0.11,0.01,0.95,-8.61,2.75,-23.19,-12.32,39.06,-49.23,1
0.32,0.07,0.97,-0.49,7.45,-4.03,-12.35,37.73,-47.88,1
0.09,-0.01,1.00,0.43,-1.40,-33.94,-13.21,38.16,-48.80,1
0.04,0.01,1.01,17.21,24.78,-20.32,-13.42,37.89,-48.39,1
0.13,-0.05,1.01,15.01,6.41,-21.12,-13.31,38.87,-46.92,1
0.10,-0.02,0.98,9.83,-39.00,-56.09,-15.70,38.76,-46.58,1
0.03,-0.06,0.99,0.92,4.27,-19.65,-18.12,38.35,-45.89,1
0.05,-0.05,0.98,-4.94,10.74,-14.40,-18.97,36.77,-47.20,1
0.09,-0.01,0.98,-9.83,7.75,-19.29,-18.02,35.82,-47.27,1
0.08,-0.05,1.01,0.37,-7.08,-20.57,-18.51,35.03,-47.74,1
0.12,-0.05,1.00,-11.23,8.54,-12.94,-18.69,34.18,-46.88,1
0.06,-0.01,0.99,-7.26,4.15,-10.19,-17.93,32.14,-48.19,1
0.09,-0.04,1.00,4.46,-2.99,-12.57,-18.27,31.56,-46.90,1
0.06,-0.03,0.99,-3.72,-5.98,-22.22,-19.24,30.86,-47.80,1
0.07,-0.03,1.00,-3.05,0.00,-13.92,-19.62,29.99,-47.62,1
0.09,0.02,1.00,-3.66,4.70,-12.88,-19.03,28.63,-48.28,1
0.12,0.00,1.02,-6.47,-3.54,-12.82,-19.27,28.27,-49.96,1
0.05,-0.03,1.00,6.59,-7.20,-22.03,-19.45,27.73,-47.88,1
0.07,-0.00,0.99,3.85,2.01,-25.39,-20.07,27.06,-48.51,1
0.10,-0.02,1.00,-0.18,6.10,-19.71,-19.84,25.77,-48.82,1
0.10,-0.02,1.00,-5.00,7.45,-11.66,-19.71,25.66,-48.86,1
0.11,-0.00,0.99,-11.11,5.98,-10.74,-19.08,25.02,-48.73,1
0.12,0.01,0.97,-10.56,2.44,-13.55,-18.91,23.97,-49.11,1
0.11,0.01,0.99,2.38,11.23,-8.36,-18.29,22.00,-50.00,1
0.13,0.02,0.98,-6.71,-13.79,-32.10,-17.24,21.07,-49.04,1
0.07,0.04,0.99,-17.27,-31.31,-35.58,-21.04,18.95,-49.43,1
0.00,0.04,0.98,7.26,-4.33,-14.16,-22.34,18.55,-47.56,1
0.07,0.01,1.00,5.74,11.11,-12.27,-21.26,18.84,-49.19,1
0.10,-0.04,0.99,19.41,20.39,-5.07,-20.25,19.32,-49.78,1
0.09,-0.06,1.00,-1.53,0.85,-10.38,-18.97,20.35,-49.58,1
0.10,-0.02,0.97,-10.31,9.40,-33.20,-18.96,19.43,-49.15,1
0.15,-0.04,0.98,4.15,-10.44,-12.57,-18.18,17.75,-49.78,1
0.10,-0.03,1.00,-1.59,-15.99,-13.12,-19.68,17.48,-49.96,1
0.10,-0.03,1.00,-6.04,3.85,-3.36,-19.48,16.46,-49.65,1
0.10,-0.04,1.00,-0.61,-5.31,-10.31,-19.42,17.04,-49.34,1
0.09,-0.05,1.02,-3.23,-4.33,-6.84,-19.57,15.69,-50.02,1
0.07,-0.06,1.00,-6.10,5.86,-22.03,-20.06,14.90,-49.30,1
0.06,0.00,0.99,-9.89,-5.92,-23.50,-19.98,12.73,-51.16,1
0.10,-0.04,0.98,8.67,0.85,2.44,-20.07,13.48,-49.49,1
0.06,-0.05,0.99,18.13,-8.30,-14.59,-20.48,14.36,-48.62,1
0.05,-0.01,1.00,-1.40,0.43,-20.08,-20.50,14.18,-49.80,1
0.11,-0.08,1.02,-13.73,13.06,-11.72,-18.95,12.54,-49.69,1
0.11,-0.03,1.01,-0.37,2.01,2.20,-18.51,12.49,-50.13,1
0.10,-0.01,0.99,8.06,-0.85,12.57,-17.57,12.72,-48.49,1
0.08,-0.02,0.96,15.38,10.31,62.19,-18.26,15.50,-50.17,1
0.15,-0.06,0.97,21.61,7.45,37.05,-17.38,19.51,-50.77,1
0.17,-0.06,1.00,-11.66,7.45,-13.12,-16.93,19.96,-50.82,1
0.18,-0.06,0.98,-5.55,10.01,-44.68,-16.25,17.42,-51.12,1
0.16,-0.11,0.99,5.49,-6.53,-38.02,-15.95,15.80,-50.70,1
0.09,0.02,0.92,-3.85,0.61,-13.85,-16.15,15.41,-49.98,1
0.18,-0.03,1.00,-9.70,-9.70,-14.22,-16.39,14.53,-51.43,1
0.12,-0.07,0.93,10.13,-20.26,-19.59,-17.76,13.48,-50.05,1
0.12,-0.05,1.07,6.65,32.96,-6.71,-16.88,14.38,-49.85,1
0.21,-0.06,0.90,-1.89,27.16,-7.51,-15.01,13.77,-50.45,1
0.20,0.03,0.98,-2.32,-1.77,-20.51,-11.57,14.10,-49.60,1
0.21,-0.08,0.98,11.90,-10.25,-29.24,-12.33,13.43,-49.13,1
0.19,-0.23,1.01,-6.47,-28.02,-36.07,-12.96,12.48,-48.12,1
0.12,-0.07,0.93,5.74,-12.27,-14.40,-13.59,11.74,-47.42,1
0.07,-0.14,1.03,-12.08,-48.16,-26.92,-15.00,11.87,-46.25,1
0.02,-0.06,1.01,-20.75,-26.43,-27.53,-17.91,8.73,-44.73,1
0.00,-0.10,1.01,1.46,-0.43,-20.20,-19.53,5.92,-44.68,1
0.02,0.04,0.97,-0.73,-3.72,-24.78,-17.91,4.98,-45.40,1
0.09,0.00,1.02,8.36,11.72,-14.95,-17.47,4.63,-43.90,1
0.04,-0.04,1.00,-4.88,19.65,-38.15,-16.53,5.13,-45.78,1
0.06,-0.11,0.96,-8.42,-1.59,-40.95,-13.78,3.39,-45.76,1
0.02,-0.03,1.03,-2.26,2.62,-28.02,-13.04,2.06,-45.21,1
0.04,-0.01,1.01,16.11,8.00,-17.64,-11.25,0.73,-45.95,1
0.02,-0.08,1.00,11.05,-4.39,-16.72,-11.06,2.27,-46.70,1
0.09,-0.10,1.01,7.14,4.52,-10.62,-10.66,1.99,-47.11,1
0.10,-0.05,0.96,-11.17,11.78,-14.77,-9.53,3.09,-47.92,1
0.12,-0.05,1.00,-21.61,17.82,-10.25,-7.86,1.37,-47.03,1
0.14,-0.02,1.01,-17.15,24.05,-10.44,-5.33,-1.38,-46.98,1
0.16,0.05,0.91,4.70,13.55,-7.20,-3.44,-2.51,-46.29,1
0.20,-0.04,1.00,-6.29,7.93,-9.58,-1.72,-1.67,-46.48,1
0.23,0.04,0.97,-3.54,6.29,-22.52,-0.62,-2.49,-46.58,1
0.23,-0.06,0.93,20.51,-1.40,-7.32,0.12,-2.39,-47.16,1
0.18,-0.03,1.01,-2.87,-18.19,-19.35,-0.57,-0.76,-48.11,1
0.16,-0.05,1.00,-8.54,-7.87,-23.44,-1.06,-2.20,-45.97,1
0.17,-0.04,1.04,-5.55,-9.89,-27.89,-0.20,-4.09,-46.12,1
0.09,-0.07,0.92,-10.68,-11.41,-25.51,-0.96,-3.48,-46.23,1
0.07,0.08,1.03,-22.71,-12.08,-29.60,-1.35,-5.75,-44.75,1
0.09,0.08,0.98,-22.52,3.54,-10.56,-1.37,-6.99,-44.93,1
0.07,0.13,0.94,-3.17,4.15,-7.14,-0.82,-7.86,-44.59,1
0.12,0.05,1.01,7.14,7.51,-5.19,0.42,-8.29,-45.37,1
0.13,0.02,1.00,12.51,-1.28,-6.16,0.52,-6.82,-45.59,1
0.11,-0.01,1.01,9.46,-3.78,0.24,0.21,-6.07,-45.69,1
0.09,0.02,0.98,-4.94,-9.46,-4.03,0.88,-6.08,-45.61,1
0.08,-0.03,0.85,7.63,1.04,-8.00,-0.21,-5.40,-46.91,1
0.08,0.00,0.97,-6.53,-15.87,-18.74,-0.52,-6.31,-44.68,1
0.04,0.02,0.96,10.68,1.22,-17.58,-0.48,-5.59,-46.01,1
0.07,-0.11,1.17,-6.96,-20.94,-14.83,-0.73,-5.48,-46.20,1
0.03,0.03,0.96,1.89,2.75,-10.93,-0.11,-5.11,-45.84,1
0.06,-0.04,1.01,13.00,-8.48,-2.32,-0.31,-3.32,-45.57,1
0.03,-0.04,1.04,9.95,-0.06,-4.70,-0.11,-3.43,-46.24,1
0.03,-0.09,0.99,13.85,3.42,-10.25,-0.43,-1.40,-47.24,1
0.07,-0.02,1.00,-43.09,9.46,-2.81,-0.05,-3.98,-46.04,1
0.13,-0.03,1.01,10.68,27.47,-34.48,3.60,-3.64,-44.62,1
0.08,-0.06,0.97,-5.62,-7.20,-21.85,4.80,-3.69,-45.35,1
0.02,-0.05,1.02,1.34,-15.69,-23.62,4.32,-3.85,-46.64,1
0.02,-0.06,0.97,-3.42,-14.71,-9.40,2.12,-3.65,-46.41,1
0.00,-0.04,1.01,0.85,-9.16,-20.63,3.08,-3.69,-47.23,1
-0.03,-0.05,1.04,10.93,-17.40,7.02,2.83,-3.38,-46.63,1
-0.04,-0.10,1.02,-14.89,-21.30,-15.44,2.36,-2.22,-46.68,1
0.01,-0.03,1.00,-0.43,1.65,-9.28,1.97,-3.00,-48.38,1
-0.08,-0.06,1.00,4.39,2.01,-11.84,2.44,-2.72,-47.45,1
-0.03,-0.03,1.02,-8.67,-1.28,-16.30,2.78,-2.10,-47.95,1
-0.05,-0.07,0.94,1.95,2.20,-20.08,2.56,-1.84,-47.36,1
-0.08,-0.08,1.01,0.79,-2.32,-15.26,3.41,-2.65,-46.22,1
-0.00,-0.02,1.02,-13.43,5.98,-24.96,3.74,-3.56,-47.75,1
-0.03,-0.06,0.96,11.47,-11.05,-27.47,5.31,-3.63,-46.74,1
-0.05,-0.03,0.96,-5.43,1.28,-27.16,6.16,-3.20,-47.66,1
-0.04,0.00,1.04,-2.20,4.21,-17.76,8.45,-4.15,-46.18,1
-0.04,-0.00,0.99,-1.16,-4.88,-0.55,8.96,-4.44,-45.89,1
-0.05,-0.03,1.02,29.30,-19.04,-0.37,7.03,-2.89,-47.49,1
-0.09,-0.11,0.96,10.07,-8.73,14.22,5.20,-0.20,-49.21,1
-0.09,-0.11,1.01,-10.19,5.92,33.39,4.30,-0.66,-48.60,1
-0.03,-0.02,1.02,-19.17,6.47,44.07,4.28,-0.96,-46.69,1
-0.05,-0.09,0.98,25.63,-10.31,19.90,1.60,-2.50,-47.23,1
-0.02,-0.12,0.97,10.13,-6.35,29.54,0.55,-0.34,-47.72,1
-0.04,-0.08,0.99,0.37,-4.33,4.70,-0.63,0.28,-48.69,1
-0.08,-0.12,0.98,-5.37,-3.42,29.17,-0.99,0.33,-47.68,1
-0.06,-0.12,0.95,-1.53,-1.59,27.59,-3.14,-0.54,-47.94,1
-0.06,-0.10,1.01,-18.80,-5.00,36.01,-3.92,0.49,-48.46,1
-0.06,-0.09,0.99,-9.28,0.24,16.17,-5.77,-0.87,-46.92,1
-0.04,-0.07,0.99,3.60,5.31,0.24,-5.79,-1.15,-46.63,1
-0.06,-0.10,0.98,0.92,4.82,5.25,-5.92,-1.28,-46.48,1
-0.02,-0.08,0.98,0.61,6.96,27.34,-5.53,-0.55,-47.45,1
-0.03,-0.09,1.01,3.78,5.00,30.40,-5.20,0.52,-46.89,1
-0.01,-0.10,1.01,-5.92,0.49,18.68,-6.03,0.42,-46.84,1
-0.06,-0.10,1.03,-4.33,2.01,2.44,-6.65,-0.42,-47.09,1
-0.03,-0.08,1.01,-9.16,-1.95,2.08,-5.98,-0.40,-47.56,1
-0.03,-0.07,1.01,-5.62,-0.06,3.05,-5.93,-1.10,-46.63,1
-0.00,-0.06,0.98,1.28,-1.65,20.39,-6.63,-0.59,-46.73,1
-0.01,-0.07,1.01,-3.36,-0.37,25.45,-6.46,-0.96,-46.59,1
0.00,-0.06,1.03,2.26,4.82,20.20,-7.07,-0.09,-48.32,1
0.00,-0.07,1.01,-5.62,-3.91,12.27,-7.43,-0.02,-47.17,1
0.00,-0.04,1.01,-13.18,-3.42,5.31,-8.11,0.34,-45.65,1
-0.01,-0.02,1.00,-10.86,-9.22,-2.99,-8.98,-1.66,-46.22,1
0.01,-0.01,0.99,3.91,-0.31,-0.61,-8.61,-2.81,-45.47,1
0.00,0.00,1.01,0.12,2.14,9.83,-8.62,-2.87,-44.97,1
0.01,0.00,1.00,-4.09,3.30,10.74,-8.79,-2.66,-44.15,1
0.02,-0.02,0.99,15.75,0.61,1.10,-9.22,-2.42,-45.64,1
0.02,-0.03,1.05,-4.03,0.24,-14.59,-8.63,-2.05,-44.90,1
0.01,-0.06,0.96,-2.81,-5.13,-21.97,-7.98,-2.49,-45.43,1
-0.03,-0.09,0.97,-1.77,0.18,-33.63,-7.97,-2.19,-44.65,1
0.03,-0.06,1.08,-11.72,-4.76,-36.80,-6.70,-2.28,-44.23,1
0.02,-0.02,0.95,10.86,-6.65,-47.97,-5.40,-2.62,-43.95,1
0.02,-0.02,1.03,28.38,0.55,-42.24,-3.23,-0.26,-43.97,1
-0.02,-0.04,1.00,-1.59,-10.01,-33.33,-3.50,0.93,-46.51,1
-0.05,-0.06,0.95,-2.62,-1.95,-35.28,-2.65,0.52,-46.18,1
-0.05,-0.04,1.04,0.24,-9.16,-24.11,-2.58,0.45,-46.81,1
-0.10,-0.03,0.98,-8.73,0.73,-24.11,-2.82,-0.74,-45.64,1
-0.06,-0.04,0.99,-2.69,3.66,-25.09,-2.34,-0.42,-46.39,1
-0.04,-0.02,1.03,9.28,-9.95,-17.82,-1.62,-0.87,-46.13,1
-0.13,-0.06,0.99,5.00,-20.26,-18.62,-2.80,0.46,-48.45,1
-0.06,-0.03,1.02,-21.48,-9.64,-27.53,-3.64,0.26,-47.92,1
-0.10,-0.01,1.00,21.97,1.77,-14.22,-3.61,0.68,-48.30,1
-0.11,-0.04,0.98,1.83,17.09,-20.75,-2.77,2.03,-49.16,1
-0.07,-0.08,0.99,14.16,15.69,-31.86,0.50,4.14,-50.99,1
-0.03,-0.07,0.97,0.55,12.57,-23.80,2.81,6.03,-49.55,1
0.01,-0.07,0.92,-15.44,77.15,-36.87,4.17,6.37,-51.05,1
-0.02,-0.05,1.06,-12.88,-53.28,-60.79,10.01,5.48,-49.56,1
-0.07,0.01,1.02,4.27,-38.39,-51.82,7.71,5.29,-51.21,1
-0.09,-0.02,1.02,-11.72,1.34,-76.97,7.84,6.53,-53.43,1
-0.03,-0.03,0.99,-3.78,4.52,-17.27,9.33,7.39,-52.10,1
-0.07,-0.01,0.99,-0.37,-3.11,-17.33,8.44,7.01,-52.71,1
-0.09,-0.02,0.98,8.30,-1.89,-7.45,8.07,8.13,-52.92,1
-0.12,-0.06,0.99,11.23,-34.00,4.15,4.82,10.72,-53.09,1
-0.19,-0.05,0.97,-8.12,-9.83,12.45,3.36,11.18,-52.60,1
-0.17,-0.03,0.99,5.98,-8.67,2.44,2.45,12.01,-52.34,1
-0.18,-0.01,0.96,7.39,-7.93,-35.10,1.05,14.11,-51.62,1
-0.16,-0.03,0.99,-8.85,8.30,-23.44,1.35,13.89,-51.54,1
-0.20,-0.05,1.02,26.12,-12.39,-18.55,0.23,14.84,-51.09,1
-0.17,-0.06,0.97,8.42,-1.16,-31.07,-0.46,18.77,-51.10,1
-0.20,-0.06,0.99,-4.94,16.72,-47.42,0.02,19.60,-49.56,1
-0.01,-0.02,0.96,-9.34,47.97,-60.24,3.58,18.35,-45.04,1
-0.15,0.01,0.98,15.14,-18.98,-17.94,4.99,18.29,-44.79,1
-0.11,-0.02,0.97,4.39,0.98,-27.95,3.25,18.99,-42.80,1
-0.12,-0.04,0.94,14.65,14.04,-47.00,3.71,19.79,-41.28,1
-0.06,-0.09,1.00,17.88,2.56,-46.14,4.69,19.91,-41.96,1
-0.09,-0.06,1.01,7.08,-13.37,-16.78,5.19,21.28,-38.29,1
-0.12,-0.07,0.99,4.52,-0.98,-13.92,4.53,20.68,-39.59,1
-0.10,-0.05,1.00,1.71,0.73,-19.84,4.47,20.87,-38.26,1
-0.09,-0.07,1.04,-9.83,15.32,-37.35,4.63,20.13,-38.78,1
0.09,-0.07,0.86,-13.67,16.85,-36.44,6.01,19.37,-38.42,1
-0.18,-0.01,0.95,2.99,-4.58,-41.99,8.20,18.13,-38.21,1
-0.06,-0.08,0.98,13.92,-1.34,-29.48,8.23,19.80,-37.71,1
-0.03,-0.09,0.98,12.15,-2.08,-7.02,9.06,19.89,-39.81,1
-0.02,-0.11,1.02,3.11,0.00,-7.39,8.65,21.07,-39.20,1
0.01,-0.10,0.98,-5.07,-10.80,-27.04,9.45,21.83,-40.21,1
-0.13,-0.04,1.00,-1.10,-17.70,-19.59,7.62,22.20,-41.37,1
-0.13,-0.10,1.02,-6.65,-1.77,-31.49,7.80,22.92,-42.85,1
-0.09,-0.07,1.02,25.27,10.38,-13.43,9.33,23.13,-41.13,1
-0.10,0.01,0.97,-7.20,6.35,10.31,10.18,25.46,-40.87,1
-0.12,0.01,0.97,-36.62,7.93,4.82,10.38,25.11,-40.05,1
0.01,-0.06,0.95,-5.37,6.71,35.77,11.47,23.65,-40.44,1
-0.12,-0.18,0.92,2.81,-32.65,48.77,12.18,20.97,-41.20,1
-0.06,0.03,1.03,-26.25,15.69,37.23,11.94,19.45,-41.92,1
-0.08,0.08,1.00,-24.60,36.44,74.22,16.15,15.06,-40.67,1
-0.10,0.03,0.99,14.04,-0.18,60.85,16.88,13.56,-41.26,1
-0.06,-0.04,0.99,21.00,-5.55,51.57,17.59,13.28,-42.09,1
0.01,-0.08,1.02,13.61,-11.54,46.08,16.83,13.50,-41.56,1
-0.07,-0.09,0.98,0.31,-0.55,24.84,16.55,13.59,-41.78,1
-0.03,-0.06,1.00,-12.51,16.17,21.91,17.18,11.90,-41.87,1
-0.03,-0.04,1.00,-0.61,6.16,-13.55,18.70,9.25,-38.43,1
-0.05,0.02,1.00,5.43,6.10,-41.87,20.09,9.80,-40.12,1
0.03,-0.11,1.10,7.02,-25.51,-93.63,20.83,13.37,-39.45,1
-0.07,-0.05,1.01,26.92,-26.92,-92.10,19.12,15.81,-39.10,1
-0.08,-0.04,0.98,-12.39,4.09,-62.38,17.31,20.41,-39.39,1
-0.10,-0.03,0.95,-12.70,19.29,-79.16,16.58,22.56,-40.09,1
-0.09,-0.00,0.95,-12.76,-5.43,-44.01,15.89,23.78,-40.01,1
-0.11,-0.04,1.01,-16.60,12.63,-26.79,15.88,23.93,-40.86,1
-0.06,0.00,0.97,-9.64,2.26,-29.36,15.95,23.77,-40.69,1
-0.25,0.11,0.93,11.29,1.40,-41.38,15.26,25.70,-40.41,1
-0.11,-0.02,0.99,3.97,-8.24,-33.14,12.96,29.20,-39.51,1
-0.14,0.00,1.02,8.85,-2.87,-24.29,12.33,29.43,-40.70,1
-0.17,-0.03,0.96,31.68,-23.44,-27.71,11.27,31.54,-39.69,1
-0.23,-0.27,1.31,1.59,-4.70,-27.53,7.54,34.74,-39.66,1
-0.25,-0.00,1.05,-43.46,28.38,-9.28,8.25,33.57,-39.84,1
-0.12,0.08,0.98,-25.51,26.79,-3.23,9.18,30.69,-41.14,1
-0.14,0.07,0.95,5.62,0.06,-19.35,11.25,29.03,-40.12,1
-0.07,0.20,1.00,-23.99,-27.53,-43.52,11.63,29.53,-41.26,1
-0.10,0.13,1.00,2.26,2.75,-18.01,8.03,31.80,-41.54,1
-0.17,0.06,1.01,-0.06,-12.21,-35.40,7.69,32.01,-41.28,1
-0.04,0.20,1.01,-6.35,0.61,-23.07,6.47,32.12,-42.20,1
-0.06,0.13,0.98,4.27,7.02,6.16,6.52,33.31,-42.55,1
-0.18,0.13,1.00,-7.87,7.26,18.62,7.12,33.51,-40.31,1
-0.16,0.11,1.01,-1.04,7.20,19.29,9.50,33.61,-39.62,1
-0.11,0.17,0.97,24.60,7.45,5.00,11.28,34.12,-40.31,1
-0.01,0.20,0.98,-17.03,4.27,3.66,12.87,33.34,-39.38,1
-0.02,0.17,0.89,26.37,-9.28,-14.22,12.72,34.48,-40.11,1
-0.10,0.18,1.11,-3.91,-63.96,-57.31,10.91,34.80,-40.15,1
-0.17,0.23,0.94,46.45,-45.53,-51.82,4.13,36.39,-39.82,1
-0.16,-0.02,1.00,32.29,33.08,-26.12,0.33,40.88,-38.90,1
-0.06,0.07,1.00,-27.22,54.20,-18.13,3.38,39.18,-39.28,1
0.03,-0.01,1.02,-26.55,13.31,-34.79,3.77,37.37,-41.04,1
0.04,0.09,0.97,20.26,-20.45,-46.02,3.66,36.89,-40.48,1
0.04,0.15,1.03,6.53,-11.29,-19.59,0.27,38.54,-39.69,1
-0.00,0.06,1.03,-20.26,24.84,-0.06,0.07,37.35,-41.05,1
0.02,0.06,0.97,9.58,31.19,-35.52,2.12,35.74,-42.15,1
0.03,0.06,0.91,-7.87,1.40,-46.63,2.56,35.13,-43.57,1
0.04,0.10,1.06,10.44,-15.87,-43.46,0.22,35.44,-42.47,1
0.06,0.02,1.01,-19.17,0.24,-32.96,-1.27,34.95,-44.24,1
0.07,0.04,0.93,0.73,25.39,-41.87,-0.95,33.13,-44.82,1
0.12,0.09,1.02,15.63,1.10,-36.80,-0.48,32.39,-44.42,1
0.13,0.03,1.02,-1.28,7.08,-29.91,-0.79,32.37,-44.91,1
0.15,0.07,0.99,19.23,15.69,-15.32,0.12,31.86,-45.87,1
0.18,-0.01,0.99,-13.79,-13.79,-14.16,0.13,31.71,-44.48,1
0.11,0.06,0.96,5.92,-20.14,-20.32,-1.53,29.76,-45.32,1
0.15,0.14,0.88,-5.80,-25.15,-14.04,-4.83,27.25,-45.39,1
0.05,0.07,0.99,-1.28,-11.84,-4.27,-5.35,27.91,-45.41,1
0.05,0.07,0.99,9.52,6.90,-4.27,-5.85,27.42,-45.18,1
0.15,0.03,0.95,0.06,-2.62,-0.55,-6.12,27.71,-45.31,1
0.05,0.01,0.97,-2.01,1.71,0.18,-6.10,27.12,-45.21,1
-0.00,0.04,1.03,4.64,2.26,-1.16,-4.75,26.34,-43.63,1
0.04,0.00,0.99,6.77,-5.98,-10.74,-5.40,25.94,-42.91,1
0.06,-0.03,1.00,-7.69,-6.96,-16.91,-6.74,23.23,-42.02,1
0.02,-0.00,0.99,-12.08,5.13,-17.09,-5.88,21.23,-39.56,1
0.04,-0.02,1.05,2.87,-5.31,-13.85,-6.07,20.45,-39.00,1
0.12,-0.06,1.08,13.79,1.10,-26.86,-5.71,18.73,-35.64,1
0.04,-0.06,1.04,30.58,-7.69,-25.21,-6.31,19.71,-32.18,1
0.02,-0.07,1.00,2.20,17.82,-14.83,-6.25,22.67,-30.25,1
0.06,-0.06,1.00,-20.32,13.49,-6.35,-6.29,24.28,-29.93,1
0.08,-0.07,1.00,-2.26,8.42,-25.57,-5.15,25.00,-28.52,1
0.09,-0.04,0.99,23.25,-8.42,-65.43,-6.53,26.57,-29.80,1
0.07,-0.10,1.00,-15.08,4.82,-37.54,-8.95,27.81,-28.32,1
0.10,-0.07,1.00,-26.43,7.26,-6.10,-8.90,27.14,-28.92,1
0.16,0.00,0.99,-13.06,-16.11,-16.78,-8.74,25.77,-27.22,1
-0.02,-0.09,1.01,11.90,-11.41,-33.39,-12.16,24.63,-26.60,1
0.02,-0.05,0.98,9.95,11.72,-19.78,-13.92,23.33,-26.57,1
0.02,-0.08,0.99,22.03,-13.06,-53.59,-14.39,22.27,-27.37,1
-0.05,-0.05,1.03,9.03,-10.01,-24.17,-16.96,17.20,-27.09,1
0.01,-0.03,0.97,-10.86,0.24,-0.43,-16.37,14.47,-30.71,1
0.02,-0.09,1.00,3.30,5.31,11.23,-14.59,16.03,-35.66,1
0.04,-0.07,0.98,-7.57,0.79,36.25,-14.10,17.20,-38.22,1
0.01,-0.09,0.99,1.71,-6.41,45.78,-13.53,21.00,-39.66,1
-0.00,-0.10,0.98,-9.03,22.40,87.83,-10.38,24.93,-41.85,1
0.06,-0.05,1.01,-8.30,14.40,75.26,-6.96,27.05,-42.08,1
0.14,0.01,0.99,-4.64,6.29,96.19,-4.86,27.43,-42.61,1
0.10,-0.00,1.01,22.03,-13.55,53.28,-3.50,30.29,-42.55,1
0.02,-0.07,1.05,24.17,-27.22,52.49,-2.39,34.48,-42.58,1
0.09,-0.07,1.00,17.27,-6.16,27.16,-1.98,35.95,-42.10,1
0.09,-0.13,0.97,44.80,-0.18,33.57,-0.82,39.05,-41.82,1
0.03,-0.18,1.00,9.16,5.31,55.48,1.10,44.04,-38.71,1
0.06,-0.17,1.01,-33.51,7.32,43.15,4.35,43.07,-39.23,1
0.11,-0.08,0.93,-25.39,-13.18,26.25,5.64,40.76,-38.90,1
0.16,-0.13,1.06,22.83,-20.02,36.80,5.70,39.34,-40.16,1
0.04,-0.15,0.96,-0.85,-2.01,31.07,6.56,40.34,-39.94,1
0.15,-0.12,0.95,-5.55,-2.87,28.26,8.57,40.86,-39.14,1
0.05,-0.14,0.99,-21.12,-5.74,5.86,9.29,40.27,-39.73,1
0.00,-0.13,1.01,7.81,-12.39,66.10,9.75,37.65,-41.47,1
0.16,-0.01,1.06,-29.05,20.26,102.42,12.49,35.96,-40.36,1
0.11,0.19,1.00,-22.03,27.16,60.79,16.98,30.24,-41.02,1
0.06,0.06,0.99,-15.44,0.37,32.04,17.76,29.52,-41.82,1
0.19,0.07,1.00,22.46,1.95,25.21,19.34,27.20,-40.93,1
0.26,0.14,0.99,35.64,21.91,-0.24,21.09,30.47,-39.95,1
0.19,-0.11,0.98,10.50,26.18,15.69,21.63,34.31,-37.60,1
0.25,-0.05,1.01,-0.85,3.66,24.96,24.46,33.34,-37.81,1
0.14,0.05,0.97,-2.01,-50.48,75.13,25.16,32.09,-38.12,1
0.06,-0.01,1.06,8.54,-54.32,49.13,21.37,31.07,-39.76,1
0.16,0.02,0.99,3.91,4.09,59.51,20.81,29.44,-39.64,1
0.23,-0.09,1.03,4.27,13.49,60.97,21.63,28.96,-39.82,1
0.20,0.05,0.95,18.31,3.85,49.68,24.34,25.71,-37.48,1
0.15,0.07,0.98,6.84,9.09,33.20,25.02,24.95,-35.64,1
0.17,0.12,0.96,-5.68,-1.71,45.78,26.98,21.86,-34.45,1
0.11,0.09,1.01,3.91,-21.97,22.71,26.48,22.20,-34.74,1
0.09,0.07,0.95,2.08,-28.32,21.00,25.22,20.43,-35.39,1
0.16,0.03,0.99,-1.59,-23.01,27.95,22.20,19.69,-38.04,1
-0.05,0.08,1.04,-7.14,-49.01,21.79,18.95,19.46,-38.32,1
-0.11,0.09,1.04,-3.42,-14.47,9.58,17.87,18.80,-38.49,1
-0.05,0.01,0.99,1.04,-18.68,16.60,17.26,18.13,-39.00,1
-0.05,-0.06,0.84,-7.08,-34.61,9.83,16.66,16.69,-39.89,1
-0.19,0.13,0.97,10.50,-42.54,21.12,12.51,15.19,-39.83,1
-0.21,-0.03,0.89,104.06,29.79,25.51,10.64,17.40,-40.04,1
-0.14,-0.02,1.03,3.17,18.01,23.01,13.45,20.89,-38.61,1
-0.10,-0.10,0.97,-2.69,2.56,16.66,14.98,20.23,-39.00,1
-0.07,-0.12,1.01,-5.49,-11.35,11.41,14.99,19.58,-38.04,1
-0.14,-0.04,0.95,-1.59,-5.00,-5.31,15.23,18.90,-38.44,1
-0.18,0.00,1.01,-12.39,-1.28,0.92,13.98,17.25,-39.12,1
-0.15,-0.01,1.00,-12.27,7.63,25.63,15.36,16.32,-38.89,1
-0.18,0.01,0.98,16.05,21.55,32.35,16.81,16.14,-39.20,1
-0.06,-0.10,0.97,24.17,-1.16,55.11,17.66,15.05,-39.40,1
-0.10,-0.16,0.91,14.40,-31.86,27.28,17.22,15.64,-38.96,1
-0.15,-0.15,0.98,-23.50,-23.25,13.79,14.76,13.66,-40.98,1
-0.15,-0.10,1.04,-15.93,7.75,26.43,14.05,10.94,-42.05,1
-0.11,-0.09,1.01,6.84,-13.79,28.63,14.20,8.63,-42.94,1
-0.21,-0.12,0.96,-3.05,0.18,22.46,12.33,8.28,-41.80,1
-0.11,-0.12,1.05,-15.50,7.08,4.33,12.70,6.16,-42.54,1
-0.08,-0.11,0.99,-23.38,22.22,7.87,13.39,5.62,-40.61,1
-0.08,-0.06,1.00,-16.54,6.71,-4.09,14.16,4.20,-41.16,1
-0.04,-0.03,0.96,0.55,-2.75,1.04,15.21,3.88,-39.31,1
-0.12,-0.02,0.99,10.07,-7.51,19.10,13.75,4.05,-40.28,1
-0.04,-0.08,0.93,-11.29,-1.46,13.98,13.22,5.26,-38.78,1
-0.20,-0.04,0.94,0.79,-19.41,12.45,12.00,2.81,-38.40,1
-0.22,-0.02,1.01,-7.75,-30.58,-58.65,9.23,3.50,-40.30,1
-0.06,-0.03,1.00,13.06,47.06,-106.93,12.18,5.24,-39.18,1
-0.06,-0.10,0.98,11.41,-10.86,47.79,14.71,6.91,-39.12,1
-0.11,-0.06,1.01,3.60,-10.74,79.90,12.02,5.63,-39.65,1
-0.17,-0.12,0.96,28.20,-11.54,77.27,8.78,5.47,-38.79,1
-0.15,-0.15,1.00,11.17,-21.42,44.13,4.63,7.02,-40.89,1
-0.28,-0.19,0.92,-39.79,-20.87,19.04,3.69,7.15,-41.21,1
-0.19,-0.14,0.99,-27.89,6.77,5.25,1.66,4.97,-41.53,1
-0.11,-0.01,0.97,-20.14,59.45,38.82,2.58,1.46,-39.79,1
0.05,-0.15,1.04,-2.08,52.61,81.67,6.47,1.50,-38.66,1
0.08,-0.10,0.98,-15.99,0.43,19.71,8.23,1.44,-37.84,1
0.01,-0.08,1.00,-15.93,-24.60,5.98,7.65,0.78,-38.60,1
-0.00,-0.06,1.02,-43.64,-8.97,27.47,4.86,-1.42,-38.15,1
-0.06,0.03,0.91,22.52,-23.56,50.42,2.70,-4.11,-37.68,1
-0.08,-0.12,1.04,47.06,-14.53,43.27,-0.66,-2.77,-37.88,1
-0.08,-0.11,0.99,-14.16,23.25,20.08,-3.09,-0.44,-38.57,1
-0.00,-0.01,1.01,-22.95,1.89,33.57,-2.25,-2.88,-37.51,1
-0.03,-0.02,0.99,-15.50,-2.01,29.05,-4.19,-4.64,-36.98,1
0.05,0.02,0.99,2.01,10.31,29.36,-4.11,-4.21,-37.04,1
0.08,0.01,0.98,3.72,0.49,31.43,-5.37,-3.48,-36.74,1
0.01,-0.06,1.05,20.69,6.23,31.19,-5.86,-0.88,-37.43,1
0.08,-0.12,0.99,14.22,-12.45,34.97,-7.78,0.24,-38.51,1
0.01,-0.20,1.06,17.15,-5.31,36.87,-8.47,1.90,-38.51,1
0.04,-0.09,0.96,7.63,-4.21,39.73,-10.27,3.56,-39.21,1
0.07,-0.13,1.04,13.00,4.09,37.17,-11.23,5.29,-38.99,1
0.06,-0.16,1.00,17.94,3.85,8.73,-10.66,6.90,-39.58,1
0.13,-0.20,0.94,9.77,6.23,10.25,-10.16,7.80,-41.26,1
0.08,-0.16,0.94,8.91,9.09,15.38,-7.37,8.29,-41.11,1
0.14,-0.14,0.94,8.18,-6.84,14.04,-7.01,8.91,-41.64,1
0.11,-0.16,0.96,2.93,-9.77,14.65,-7.29,10.58,-40.36,1
0.13,-0.27,0.95,8.97,-5.62,21.48,-7.46,10.78,-40.99,1
0.13,-0.20,1.00,14.95,-10.86,22.83,-7.60,11.66,-42.10,1
0.03,-0.12,0.92,-19.47,-45.47,22.77,-8.76,12.62,-42.48,1
0.00,-0.16,0.98,-3.23,4.39,43.46,-9.64,11.50,-42.92,1
0.04,-0.15,1.01,2.75,16.36,26.25,-9.33,12.02,-42.85,1
0.26,-0.21,0.98,-0.06,27.34,37.35,-8.62,11.27,-45.23,1
0.22,-0.27,1.00,-2.87,-4.09,30.33,-7.13,10.83,-43.43,1
0.26,-0.16,0.98,-12.02,35.46,31.74,-5.11,10.00,-44.13,1
0.19,-0.12,1.00,16.97,-18.49,28.38,-1.33,9.73,-43.08,1
0.23,-0.12,0.91,-0.43,-39.79,25.15,-2.48,11.61,-44.59,1
0.10,-0.22,1.02,1.83,-49.50,23.74,-6.81,12.32,-44.10,1
0.00,-0.06,1.06,-4.46,-21.00,13.67,-8.58,12.76,-45.70,1
0.02,-0.06,1.04,-14.40,-14.10,14.59,-10.05,12.63,-45.81,1
0.03,-0.01,0.98,-5.80,-11.41,25.88,-11.35,12.34,-45.92,1
-0.02,-0.02,1.00,-5.86,-6.96,16.17,-11.74,14.11,-46.15,1
-0.06,-0.05,1.02,-0.31,12.21,17.15,-12.02,13.73,-45.57,1
0.03,-0.15,1.07,17.88,13.12,17.27,-11.54,15.52,-44.97,1
0.05,-0.05,1.02,-18.25,5.31,16.48,-9.20,16.82,-44.49,1
0.05,-0.01,0.96,-4.33,-16.05,35.03,-8.84,17.07,-44.48,1
0.05,-0.06,1.02,0.73,-7.26,45.35,-9.99,17.93,-42.47,1
-0.03,-0.07,1.02,-1.34,-6.29,41.56,-9.90,19.95,-41.74,1
0.06,-0.02,1.02,-11.35,1.28,49.19,-8.67,20.76,-42.05,1
0.00,0.03,0.97,-4.33,-9.34,45.53,-7.19,21.25,-39.27,1
-0.04,0.05,0.97,-3.48,-5.92,38.70,-7.89,21.86,-39.76,1
-0.05,0.04,1.00,6.84,-8.97,47.49,-8.30,23.32,-36.34,1
-0.04,0.00,1.01,17.52,-20.94,29.48,-8.83,23.62,-35.14,1
-0.12,-0.03,0.98,1.28,-7.39,27.65,-9.45,24.63,-32.35,1
-0.11,-0.05,0.99,-4.76,1.89,16.72,-9.40,24.46,-31.19,1
-0.13,-0.04,1.00,-12.21,-9.70,8.30,-8.81,23.80,-29.77,1
-0.11,-0.04,1.00,-1.59,-14.28,11.60,-9.40,21.25,-26.48,1
-0.17,-0.04,1.02,-5.31,-2.99,10.99,-10.60,18.31,-23.08,1
-0.17,-0.02,0.98,7.26,-2.75,15.99,-10.64,15.61,-22.90,1
-0.18,0.01,0.96,-5.43,-2.26,12.15,-12.32,12.02,-24.44,1
-0.12,-0.02,0.98,3.78,16.42,21.24,-13.40,9.79,-28.20,1
-0.07,-0.00,1.01,-10.62,30.82,25.57,-14.58,9.36,-33.28,1
-0.07,-0.01,0.94,-10.93,4.21,13.31,-15.63,10.29,-35.77,1
-0.15,0.08,0.98,-29.05,1.59,-3.23,-16.75,12.23,-39.92,1
-0.08,0.02,1.08,15.50,-0.37,11.41,-15.89,12.17,-41.72,1
-0.04,0.02,1.02,-2.44,9.09,14.04,-16.19,13.87,-43.41,1
-0.03,0.10,0.97,-24.17,19.84,-1.40,-14.36,14.73,-43.65,1
-0.00,0.07,0.99,13.49,-12.76,5.13,-12.56,15.36,-45.20,1
-0.12,0.14,0.95,0.37,13.73,-13.06,-13.27,18.49,-44.78,1
0.03,0.08,0.98,3.85,16.97,-4.58,-10.82,19.92,-45.79,1
0.03,0.08,1.03,3.85,19.47,-9.89,-10.63,20.83,-44.98,1
0.09,0.04,1.02,-6.71,-22.28,-15.01,-9.97,22.55,-47.51,1
-0.02,0.09,0.99,14.40,-15.14,-7.02,-14.12,23.77,-45.94,1
-0.00,-0.01,0.99,35.58,-15.44,-1.40,-15.12,27.87,-45.83,1
-0.12,-0.01,1.00,-8.42,-24.84,19.53,-16.30,28.64,-42.99,1
-0.14,-0.01,0.99,10.44,0.55,54.38,-17.47,29.80,-43.97,1
-0.05,-0.06,1.00,0.92,14.40,47.49,-17.52,32.92,-42.40,1
-0.17,-0.02,0.90,-21.24,17.15,41.20,-15.48,32.07,-41.67,1
-0.03,0.04,0.95,-17.33,1.89,8.97,-14.42,31.79,-44.19,1
-0.03,0.06,1.03,-5.92,38.45,-32.29,-13.66,29.42,-45.35,1
-0.04,0.06,0.99,22.16,-26.43,-35.83,-14.40,29.83,-44.25,1
-0.05,-0.01,1.02,15.20,-12.45,-14.71,-16.38,30.97,-42.65,1
-0.06,-0.01,0.99,17.15,20.08,1.28,-17.04,31.51,-42.58,1
-0.06,-0.05,1.00,10.93,26.73,75.50,-15.04,33.35,-44.37,1
-0.03,-0.06,1.02,-12.63,17.15,57.13,-11.50,35.77,-44.27,1
0.03,0.01,0.99,-3.97,-5.37,11.90,-10.29,35.46,-44.70,1
0.04,-0.03,1.02,3.11,2.44,2.20,-10.38,35.47,-42.40,1
0.06,-0.00,0.95,1.22,9.22,-7.08,-10.58,36.28,-44.29,1
-0.01,-0.05,0.98,15.26,12.63,-74.58,-12.06,37.04,-41.60,1
-0.02,-0.05,1.03,-23.99,11.05,-22.71,-12.81,36.50,-42.93,1
0.14,0.01,0.98,-28.87,29.66,-18.07,-13.79,34.27,-43.62,1
0.13,-0.01,0.98,-28.02,7.02,-33.69,-11.87,31.24,-43.73,1
0.13,0.12,1.00,-12.57,-3.36,-23.68,-13.04,27.00,-44.10,1
0.10,0.07,0.96,58.04,-49.44,-6.90,-14.88,27.28,-43.99,1
0.05,-0.06,1.02,42.30,-29.66,23.25,-18.98,32.82,-40.31,1
-0.01,-0.10,1.05,-20.63,1.46,44.13,-20.64,36.46,-36.95,1
0.02,-0.00,0.94,-25.45,2.87,50.54,-18.99,36.99,-38.04,1
0.13,-0.08,1.04,3.85,-31.74,19.53,-18.04,37.90,-38.12,1
0.03,-0.07,0.99,-28.02,-10.38,30.33,-19.93,39.38,-36.85,1
-0.12,0.04,0.98,-18.55,3.30,21.67,-19.23,37.95,-37.17,1
-0.05,0.01,1.01,-2.26,17.76,5.49,-19.81,37.33,-39.73,1
-0.03,-0.03,1.04,-0.43,30.46,2.50,-18.97,36.99,-39.22,1
-0.01,0.02,0.98,42.85,-19.29,8.61,-16.53,36.47,-40.64,1
-0.03,-0.10,0.99,5.92,16.24,29.79,-16.47,40.65,-38.57,1
0.09,-0.11,1.04,11.90,5.31,26.00,-14.32,41.49,-39.58,1
0.08,-0.07,1.02,-17.76,4.82,-14.10,-11.67,41.49,-39.99,1
0.11,-0.03,0.98,0.98,-2.62,-26.37,-11.46,39.12,-39.76,1
0.01,-0.08,0.96,36.13,10.38,21.91,-11.74,40.69,-38.40,1
0.09,-0.16,1.00,7.87,23.68,46.20,-7.10,43.33,-38.61,1
0.19,-0.18,0.92,14.22,8.06,9.03,-6.05,43.58,-36.38,1
0.23,-0.19,0.95,-10.86,5.31,24.35,-3.74,43.79,-36.77,1
0.10,-0.11,1.00,1.22,1.89,30.40,-1.22,42.85,-36.62,1
0.24,-0.07,1.04,-16.54,-17.94,-11.17,-1.67,41.92,-35.86,1
0.12,-0.07,0.96,5.62,-23.86,-58.59,-3.54,42.19,-37.08,1
0.11,-0.09,0.94,26.18,-2.81,-39.61,-7.40,42.72,-35.41,1
0.10,-0.10,0.99,-16.11,15.08,-9.34,-7.63,43.24,-35.68,1
0.07,-0.14,1.01,-5.25,12.45,-7.08,-7.93,42.88,-36.23,1
0.13,-0.10,0.99,21.61,-17.09,-56.82,-8.29,42.21,-36.77,1
0.29,-0.18,1.03,3.17,20.02,-73.43,-13.72,43.18,-34.19,1
0.05,-0.03,1.01,-61.52,23.62,-60.36,-14.15,38.56,-37.62,1
0.09,-0.06,1.00,-37.66,-17.82,-10.86,-16.10,34.36,-36.93,1
0.04,-0.03,1.00,-20.81,3.66,-45.10,-16.85,32.65,-38.82,1
0.06,0.05,0.99,66.59,-24.48,-19.78,-18.38,28.77,-39.94,1
0.16,0.06,1.05,-0.55,22.22,8.36,-19.17,29.65,-38.95,1
0.07,-0.04,0.95,1.71,7.26,-7.75,-18.66,30.57,-37.40,1
0.10,-0.06,1.00,3.23,1.95,-7.81,-16.99,31.56,-39.11,1
0.14,-0.04,1.00,-19.23,1.28,8.61,-17.19,30.71,-39.81,1
0.10,-0.01,0.97,29.54,-2.01,49.19,-17.40,31.65,-38.83,1
0.15,-0.04,1.04,7.26,23.99,31.07,-16.42,33.64,-39.61,1
0.11,-0.06,0.99,12.27,14.40,68.30,-14.87,35.25,-39.26,1
0.22,-0.12,0.98,40.53,18.62,52.67,-11.33,39.06,-38.24,1
0.28,-0.11,1.00,33.87,-7.69,34.73,-8.92,43.40,-37.33,1
0.18,-0.11,0.95,5.43,8.61,39.18,-8.79,44.47,-36.13,1
0.20,-0.13,0.92,-0.92,12.21,27.10,-6.32,44.75,-35.69,1
0.15,-0.13,0.93,-2.93,19.04,28.69,-3.38,45.61,-36.08,1
0.29,-0.07,0.92,-24.60,1.71,10.86,-1.03,43.04,-37.06,1
0.29,-0.10,0.96,14.77,-5.37,24.78,0.02,43.53,-37.65,1
0.29,-0.11,0.92,8.48,-17.15,49.56,0.43,45.29,-36.93,1
0.27,-0.08,0.97,5.92,-22.58,49.56,1.25,45.89,-37.56,1
0.25,-0.07,1.00,-14.04,-34.00,39.79,1.45,46.33,-38.49,1
0.17,-0.02,1.00,-7.20,-14.77,16.42,0.51,45.79,-37.68,1
0.15,-0.06,0.96,-7.39,18.07,-36.74,0.71,46.51,-38.44,1
0.22,-0.09,0.98,-2.08,-25.15,-22.16,-2.88,46.41,-38.43,1
0.18,-0.05,1.00,0.67,-16.17,47.73,-2.97,45.09,-39.58,1
0.09,0.03,1.00,-20.81,9.34,57.86,-2.51,45.43,-39.61,1
0.15,-0.00,1.01,-2.62,8.42,56.76,2.48,42.92,-40.54,1
0.11,0.02,1.00,12.02,-11.29,4.39,3.47,42.90,-41.37,1
0.09,0.02,0.94,4.52,2.20,11.41,2.31,43.54,-40.32,1
0.11,0.05,0.98,1.34,-5.74,32.35,3.34,43.23,-40.08,1
0.17,0.06,0.96,23.68,4.64,36.13,5.10,42.87,-39.93,1
0.10,0.01,0.97,-1.28,-21.48,18.92,6.15,44.27,-38.39,1
0.08,-0.04,1.07,-0.61,-14.95,16.05,5.07,43.71,-39.26,1
0.00,0.05,0.94,-9.70,5.49,37.54,5.27,42.96,-41.37,1
0.16,0.01,0.98,-4.27,17.76,54.75,9.62,43.25,-39.75,1
0.16,0.02,1.00,-2.20,12.94,29.30,12.46,41.36,-39.92,1
0.19,0.01,0.99,-6.71,-2.87,4.70,13.83,41.04,-38.62,1
0.16,0.06,0.98,10.80,6.65,-1.53,13.64,40.47,-39.07,1
0.14,-0.02,0.98,29.85,9.89,13.00,14.64,41.59,-38.65,1
0.12,-0.07,0.96,1.53,-2.38,23.38,16.00,42.66,-36.91,1
0.24,0.05,0.95,-19.96,-15.32,15.81,16.20,41.14,-37.66,1
0.22,0.05,0.97,-3.97,-4.33,35.58,15.92,40.09,-38.81,1
0.18,0.03,0.95,44.80,-4.09,21.48,16.28,39.26,-38.21,1
0.07,-0.05,1.01,-3.30,-15.56,-0.49,15.59,40.11,-38.78,1
0.13,0.02,1.00,3.72,3.05,9.09,14.75,40.83,-39.33,1
0.06,0.01,1.00,-0.12,-27.65,-30.27,14.99,40.08,-39.92,1
0.06,0.00,0.99,-5.98,-19.65,-45.59,11.78,40.92,-38.67,1
0.04,0.00,0.98,6.90,-20.75,-58.47,7.68,41.54,-39.43,1
-0.05,-0.02,1.00,12.08,-5.92,-41.08,5.04,42.36,-39.69,1
-0.06,-0.07,1.00,24.41,-2.81,-46.14,2.29,45.09,-38.87,1
-0.05,-0.10,1.00,15.99,-17.15,-78.55,-1.56,46.62,-37.33,1
-0.08,-0.11,0.96,4.76,-3.60,-66.96,-7.18,47.00,-36.04,1
-0.06,-0.04,0.94,-20.20,36.44,-45.23,-7.69,46.39,-36.44,1
-0.03,-0.07,0.98,8.18,16.42,-57.37,-8.02,44.08,-37.74,1
0.06,0.00,1.04,-6.47,25.94,-61.77,-8.04,43.12,-37.40,1
0.07,-0.07,0.99,15.50,27.10,-53.77,-8.09,42.60,-37.43,1
0.09,-0.25,0.91,-14.16,-17.33,-90.27,-9.09,42.49,-38.59,1
0.05,0.07,0.99,-66.28,-29.48,-72.81,-14.29,37.84,-37.99,1
-0.05,0.01,1.07,12.27,-9.46,-17.94,-19.27,33.28,-38.53,1
-0.01,0.05,1.00,-1.65,14.34,-39.31,-19.80,31.26,-39.94,1
-0.03,0.05,1.05,33.08,-0.98,-37.48,-19.81,30.13,-40.08,1
0.04,-0.07,1.04,13.85,3.60,-18.19,-19.47,32.87,-38.89,1
0.06,-0.08,1.02,-7.57,-10.01,-13.31,-20.34,33.08,-38.44,1
-0.11,0.02,0.96,4.03,9.22,-79.96,-21.69,31.64,-38.94,1
0.07,0.00,0.95,13.85,21.67,-53.83,-21.22,30.52,-38.54,1
0.04,-0.05,1.03,-15.32,-11.17,-38.88,-21.63,28.42,-38.99,1
0.03,0.02,0.97,11.96,-19.23,-47.18,-22.50,25.59,-39.49,1
-0.04,-0.02,1.00,-5.55,-30.03,-58.53,-26.43,23.83,-37.35,1
-0.06,-0.02,0.99,-4.39,-16.42,-46.02,-26.93,21.94,-37.12,1
-0.01,0.01,1.00,-15.20,47.79,-60.49,-27.45,18.92,-37.52,1
0.10,-0.07,1.05,-39.86,25.09,-114.75,-21.57,13.32,-40.97,1
0.06,0.07,0.98,26.31,-14.22,-48.28,-20.65,9.11,-40.72,1
0.00,-0.03,1.01,24.90,-7.08,-33.69,-21.62,10.57,-39.84,1
0.06,-0.04,1.00,-12.27,1.59,-56.09,-20.42,10.62,-39.58,1
0.00,-0.18,1.00,38.76,-24.17,-43.40,-20.51,9.12,-40.00,1
0.03,-0.07,0.97,-29.30,20.20,-31.86,-19.23,8.83,-40.87,1
0.07,0.04,1.02,-26.37,22.09,-26.25,-17.71,6.36,-40.73,1
0.02,-0.04,1.19,12.94,9.95,-9.46,-15.83,4.85,-41.59,1
0.15,0.08,0.84,-21.12,-0.24,-20.94,-12.98,1.87,-39.51,1
0.12,0.01,0.99,8.48,-3.36,-21.48,-12.55,2.81,-41.67,1
0.10,-0.04,0.95,24.78,-24.05,-28.87,-13.11,3.77,-41.76,1
0.03,0.08,0.91,8.06,-24.66,-16.24,-14.23,3.85,-42.40,1
0.14,-0.11,0.96,-4.03,-12.51,-21.30,-15.60,3.86,-41.27,1
-0.15,0.05,1.00,-4.09,-3.23,-8.54,-16.44,5.09,-40.00,1
-0.01,-0.06,0.99,10.99,-16.17,-39.61,-17.00,3.58,-41.05,1
-0.00,-0.07,1.00,-2.32,19.84,-46.39,-16.52,2.80,-38.75,1
-0.02,-0.00,0.98,-3.11,42.18,-32.65,-12.49,0.62,-41.49,1
0.13,-0.04,0.98,-22.64,12.51,-39.86,-9.89,0.34,-41.76,1
0.13,-0.04,1.04,8.85,24.29,-26.12,-6.88,-1.70,-42.04,1
0.09,-0.11,1.00,4.70,0.61,-30.88,-5.74,-2.16,-42.42,1
0.03,-0.12,1.04,-3.48,-3.85,-23.38,-4.36,-1.84,-43.76,1
0.05,-0.08,1.03,-45.47,-27.10,-49.32,-4.65,-2.75,-42.20,1
-0.02,-0.00,0.93,-23.74,-9.40,-45.96,-4.47,-6.85,-41.48,1
0.03,0.07,0.88,-18.19,5.13,-30.70,-2.75,-9.48,-39.71,1
0.11,-0.00,1.12,21.12,33.26,-40.89,3.15,-9.58,-40.49,1
0.10,0.03,0.98,-24.66,-10.74,-18.07,4.82,-10.35,-38.53,1
0.09,0.11,1.07,-0.18,-37.84,-27.47,4.98,-10.97,-39.55,1
0.04,0.00,0.99,2.26,-8.48,-14.89,4.93,-10.56,-40.03,1
0.08,-0.14,1.00,0.06,10.80,-21.30,4.36,-10.75,-38.65,1
0.06,-0.12,1.27,23.07,26.49,-20.63,5.48,-9.55,-40.42,1
0.12,-0.01,1.01,22.34,-18.92,-33.75,8.12,-7.81,-41.65,1
0.05,-0.11,0.99,-1.65,-30.76,-29.72,8.50,-6.01,-44.48,1
-0.03,-0.06,0.98,11.60,-18.37,-35.71,7.19,-6.45,-45.02,1
-0.04,0.00,1.04,0.55,-11.84,-13.43,8.54,-5.91,-45.18,1
-0.03,-0.10,0.94,-5.37,-2.20,-15.32,8.67,-6.15,-45.81,1
-0.09,0.00,1.00,-7.87,22.16,-43.82,9.61,-7.26,-42.20,1
0.04,-0.07,0.96,4.64,81.42,-101.38,15.45,-5.35,-40.83,1
0.04,0.05,1.11,3.91,-9.77,27.77,19.01,-4.75,-38.50,1
0.04,0.02,1.02,22.03,-26.37,8.54,18.58,-5.75,-37.87,1
0.15,-0.21,0.90,49.99,3.91,-75.68,18.41,1.17,-40.63,1
0.07,-0.14,0.93,0.92,-4.09,-21.00,19.14,2.49,-39.64,1
-0.02,-0.05,0.99,8.85,-10.25,-21.00,18.97,2.12,-38.94,1
0.10,-0.04,0.98,-2.44,-13.00,-13.61,17.97,2.83,-40.34,1
0.02,-0.09,0.98,10.80,24.60,-69.70,19.35,4.53,-42.14,1
-0.02,-0.05,0.95,-40.77,-18.01,-50.66,20.29,5.86,-41.02,1
0.00,-0.06,0.98,-7.39,20.02,-58.47,20.57,5.82,-40.33,1
-0.08,-0.05,1.03,5.62,-22.09,-31.74,22.06,8.58,-40.09,1
-0.01,-0.06,1.04,6.84,-0.79,-46.33,21.17,11.79,-40.38,1
-0.10,-0.05,0.97,-13.61,-0.73,-25.02,21.62,11.96,-40.19,1
-0.08,0.02,1.01,-23.80,-10.13,-28.50,20.84,11.99,-40.15,1
-0.09,0.04,1.05,0.24,-20.45,-16.36,20.00,10.95,-42.50,1
-0.08,-0.01,1.00,8.00,-23.13,-34.06,18.02,13.15,-43.30,1
-0.15,0.04,1.05,12.70,0.06,-24.11,18.19,15.06,-43.03,1
-0.10,0.03,0.97,-20.08,11.29,-32.59,17.99,15.93,-44.13,1
-0.11,0.03,0.96,-21.79,19.35,-85.21,18.93,15.81,-43.68,1
-0.10,0.07,0.97,10.19,-16.91,-50.60,19.42,17.66,-42.16,1
-0.16,0.04,1.01,20.26,-24.23,-43.58,18.58,19.04,-43.82,1
-0.13,0.08,0.98,-14.89,8.97,-0.24,16.87,21.66,-43.52,1
-0.08,0.09,1.00,-15.93,6.77,13.18,17.91,19.79,-43.53,1
-0.08,0.10,1.04,0.61,5.62,20.20,18.31,18.73,-45.02,1
-0.05,0.10,1.00,8.00,5.80,30.15,19.42,18.21,-43.70,1
-0.04,0.12,1.00,-12.27,-7.93,34.79,20.13,17.63,-42.08,1
-0.10,0.09,1.00,8.36,-2.01,32.78,19.89,16.76,-42.68,1
-0.08,0.03,0.98,9.03,-1.22,18.55,19.91,17.41,-42.44,1
-0.11,0.02,0.94,-4.39,8.48,24.17,20.34,17.30,-43.23,1
-0.08,0.00,0.97,9.03,-10.01,53.96,20.52,15.05,-42.76,1
-0.13,-0.03,1.00,23.38,-1.95,51.70,20.10,15.00,-41.72,1
-0.16,-0.02,1.04,12.63,7.32,16.42,20.02,15.55,-44.14,1
-0.06,-0.03,0.99,-13.55,15.75,-22.40,20.69,15.27,-42.02,1
-0.08,0.04,1.00,-17.27,4.58,-46.39,21.92,15.53,-41.16,1
-0.04,0.02,0.98,-4.33,13.98,-57.43,22.63,15.77,-40.33,1
-0.06,0.07,1.03,-5.80,-5.43,-50.35,21.89,18.19,-41.38,1
-0.07,0.05,1.00,-10.56,-0.18,-36.25,22.62,18.79,-41.11,1
-0.07,0.06,0.98,22.03,-5.55,-41.87,22.63,20.50,-40.34,1
-0.11,-0.01,0.97,16.54,6.29,-56.27,22.18,24.13,-39.99,1
-0.02,0.06,0.99,-20.32,8.54,-69.40,22.19,26.49,-40.94,1
-0.06,0.03,0.99,-18.98,-19.84,-44.19,21.70,27.20,-39.81,1
-0.14,0.10,0.97,-25.70,-11.17,-13.06,17.81,25.99,-41.76,1
-0.07,0.10,1.03,7.57,-3.36,-2.75,16.52,25.21,-41.52,1
-0.08,0.10,0.98,16.42,11.29,-11.72,17.44,27.09,-41.88,1
-0.08,0.10,0.98,9.09,7.39,31.92,17.90,28.19,-41.14,1
-0.02,0.04,1.03,22.95,17.94,28.50,20.61,28.42,-40.92,1
-0.03,0.03,1.00,-6.10,6.29,4.70,22.19,27.62,-40.60,1
-0.04,0.01,0.99,15.75,-3.85,-1.89,22.06,28.78,-38.44,1
0.01,-0.02,0.98,0.12,4.58,-3.11,22.46,28.12,-38.67,1
-0.04,0.02,1.00,8.67,-13.31,-21.18,22.52,29.94,-39.15,1
-0.08,-0.03,1.01,19.78,-35.46,-22.22,20.50,32.52,-38.34,1
-0.13,0.01,0.95,10.13,7.45,2.87,18.49,33.91,-37.84,1
-0.03,-0.03,1.01,-8.97,39.06,34.61,19.89,32.34,-38.95,1
-0.03,-0.06,0.89,9.22,26.18,29.60,22.68,30.52,-39.23,1
0.14,0.05,1.01,-14.10,37.72,63.66,29.06,25.83,-35.95,1
0.04,0.09,1.08,-29.79,-18.31,32.04,29.26,24.58,-37.77,1
-0.11,0.07,0.87,4.39,-57.37,74.10,28.15,21.56,-38.46,1
-0.01,0.07,1.05,-28.26,-19.84,49.99,25.27,17.72,-40.39,1
-0.10,0.13,0.97,-10.50,14.71,14.16,23.63,13.75,-40.81,1
-0.02,0.11,1.00,2.26,20.14,33.75,24.93,12.17,-40.21,1
-0.08,0.16,1.00,14.47,23.19,50.84,25.20,11.41,-39.97,1
0.03,-0.04,1.01,42.85,-38.15,157.96,24.41,9.90,-39.51,1
-0.11,-0.05,0.98,-15.44,19.17,2.32,21.95,8.03,-40.37,1
0.00,0.02,0.98,-12.51,22.40,0.67,23.28,6.75,-39.60,1
0.00,0.01,1.02,-3.85,-17.03,-5.07,24.11,5.87,-38.59,1
-0.10,0.03,1.00,-3.05,-15.26,1.89,23.44,6.10,-39.61,1
-0.10,0.04,1.00,-0.49,-13.24,12.45,21.13,5.49,-39.28,1
-0.08,0.07,1.01,7.69,1.10,78.92,20.76,5.27,-39.88,1
0.04,0.00,0.93,-49.50,13.98,44.74,19.89,2.64,-40.39,1
0.02,0.04,0.97,-12.08,1.10,4.88,20.15,-1.70,-39.15,1
0.02,0.04,1.02,15.63,5.31,3.72,20.76,-1.05,-39.27,1
-0.04,0.03,1.02,31.86,-20.81,33.51,20.18,-0.20,-39.39,1
-0.11,0.04,0.95,0.67,-25.88,2.62,18.33,1.54,-42.19,1
-0.05,0.01,1.00,-1.46,-5.62,-19.04,16.55,2.11,-42.61,1
-0.10,-0.01,1.00,9.89,-3.05,-31.31,16.86,2.81,-43.44,1
-0.10,0.03,1.02,-8.24,0.98,-32.53,17.21,3.14,-41.75,1
-0.08,0.02,1.00,5.74,1.71,-37.84,17.74,4.22,-43.15,1
-0.08,0.02,1.00,-18.37,1.40,-34.18,17.97,4.74,-42.83,1
-0.07,0.04,0.99,-12.02,5.98,-45.84,19.19,4.50,-42.20,1
-0.02,0.08,0.99,-12.94,8.85,-48.77,19.34,4.64,-43.14,1
-0.02,0.11,0.95,0.61,-0.31,-37.54,20.96,5.91,-43.05,1
-0.03,0.08,0.99,14.34,-14.40,-36.99,21.02,7.56,-42.82,1
-0.03,0.08,1.00,24.60,-11.78,-20.69,20.40,10.78,-45.25,1
-0.02,0.11,1.11,11.72,3.30,-24.72,19.56,12.13,-45.58,1
-0.02,0.01,0.96,-6.53,-15.69,-16.30,19.89,13.07,-44.75,1
-0.00,0.06,0.88,-3.97,28.08,-44.56,20.13,13.01,-44.46,1
-0.03,0.10,1.00,-6.23,5.31,-35.03,19.92,14.10,-43.44,1
-0.03,0.05,0.98,8.85,29.24,-38.64,20.10,15.31,-44.23,1
-0.01,0.04,0.99,-8.54,2.44,-17.58,21.14,17.37,-44.07,1
-0.00,0.08,0.99,-5.86,-11.78,-19.29,21.29,17.48,-44.34,1
-0.03,0.08,0.99,6.23,-12.02,-7.32,20.75,17.64,-44.93,1
-0.05,0.04,0.98,-6.23,9.83,-1.28,19.98,17.44,-44.45,1
-0.08,-0.00,1.07,49.44,-30.76,-39.79,18.92,20.78,-45.92,1
-0.08,-0.02,0.97,14.22,15.44,-38.82,17.41,24.80,-45.25,1
0.00,-0.09,1.03,-2.08,12.70,-37.72,18.23,26.51,-44.82,1
0.02,-0.04,0.95,-8.67,21.12,-16.91,19.42,26.07,-43.42,1
0.04,-0.01,1.01,4.76,7.26,-18.86,20.85,26.39,-42.93,1
0.04,-0.03,0.99,-16.30,7.45,-9.34,20.36,27.04,-42.88,1
0.03,-0.01,1.04,-0.67,-4.82,-8.85,21.36,26.20,-42.90,1
0.04,0.02,0.99,-14.28,11.66,-30.40,20.97,25.31,-44.85,1
0.10,0.09,0.99,-18.01,-7.02,-2.08,20.73,23.94,-44.43,1
0.04,0.05,1.00,5.00,-3.54,-1.53,20.18,23.83,-44.69,1
0.05,0.11,0.99,7.20,-19.41,-6.84,20.09,24.01,-44.59,1
-0.03,0.07,1.01,-4.21,-31.86,-32.90,17.25,24.99,-45.26,1
-0.05,0.10,1.00,-6.29,-17.88,-15.56,14.69,25.60,-46.45,1
-0.02,0.15,0.97,-16.97,3.17,1.53,13.21,24.27,-46.96,1
-0.02,0.11,0.98,-14.53,6.65,-0.43,14.17,24.01,-46.97,1
-0.03,0.10,1.00,-10.56,5.98,12.57,15.27,22.08,-47.07,1
-0.02,0.10,1.00,25.02,-5.13,44.19,15.58,21.89,-47.30,1
-0.10,0.02,1.01,-12.08,-17.09,34.18,14.45,22.80,-46.75,1
-0.10,0.01,1.00,11.60,-2.14,55.42,14.65,22.52,-46.66,1
-0.22,-0.06,1.13,49.74,-28.56,100.28,14.75,24.17,-47.09,1
-0.17,-0.03,1.04,-7.57,8.61,42.79,14.87,24.94,-46.06,1
-0.10,-0.01,1.03,-12.08,26.12,26.49,17.85,22.58,-45.98,1
0.03,-0.01,0.99,-0.73,29.24,62.62,19.32,20.42,-45.13,1
-0.08,0.01,0.95,-21.24,-18.62,51.88,21.95,17.08,-44.70,1
-0.06,-0.02,1.01,20.75,-7.08,20.69,20.58,14.54,-45.02,1
-0.10,0.01,1.00,-20.26,7.81,21.30,20.73,13.56,-44.26,1
-0.08,0.03,0.95,-4.58,3.66,31.37,21.86,13.33,-44.04,1
-0.04,0.02,1.02,-4.33,-2.26,26.18,20.63,11.94,-42.49,1
-0.03,-0.01,0.98,-17.52,-0.61,44.13,20.08,8.78,-43.62,1
-0.02,0.05,0.96,5.68,10.44,42.72,20.83,7.56,-41.54,1
-0.05,0.04,0.99,-11.05,6.59,49.80,20.46,6.80,-42.55,1
-0.02,0.02,0.95,11.05,7.14,38.76,20.73,3.66,-40.70,1
-0.03,-0.01,1.05,15.01,-5.49,23.62,20.54,4.06,-40.87,1
-0.05,-0.02,0.99,12.57,-10.50,25.57,19.03,4.25,-41.06,1
0.03,-0.00,0.84,-0.37,3.48,21.67,18.33,4.60,-41.58,1
-0.08,-0.05,1.03,-11.41,3.91,28.02,17.07,3.60,-41.04,1
0.02,-0.04,1.05,6.23,-0.55,35.58,17.31,1.94,-41.85,1
-0.01,-0.04,0.95,-3.54,-1.83,36.25,16.16,1.40,-41.52,1
-0.02,-0.06,0.98,-9.28,-1.95,25.27,14.95,0.27,-39.50,1
-0.01,-0.03,0.95,-13.98,-6.90,14.10,13.64,-1.65,-40.67,1
-0.08,-0.02,1.03,7.39,-4.09,10.25,12.73,-1.86,-41.02,1
-0.07,-0.02,1.00,12.02,-5.49,18.92,12.72,-2.25,-40.31,1
-0.07,-0.06,0.98,5.55,-27.16,39.79,10.90,-0.98,-40.38,1
-0.15,-0.08,1.00,14.47,-43.27,41.81,6.08,-0.79,-42.40,1
-0.18,-0.14,0.99,24.29,-14.65,30.46,2.53,1.03,-44.13,1
-0.07,-0.18,0.96,16.72,-0.98,20.87,3.00,2.70,-43.90,1
-0.20,-0.26,0.87,-13.61,8.12,42.11,2.94,3.98,-44.53,1
-0.15,-0.14,0.97,-5.13,-25.09,19.10,3.60,0.20,-43.38,1
-0.11,-0.08,1.00,-6.84,-8.73,9.95,3.50,-4.19,-42.24,1
-0.21,-0.09,0.99,6.10,9.95,11.72,1.71,-3.93,-41.50,1
-0.24,-0.14,0.95,14.95,26.12,7.32,3.16,-3.27,-41.13,1
-0.19,-0.04,1.06,-29.42,-9.64,17.64,1.29,-4.63,-42.22,1
-0.18,-0.07,1.08,32.17,-6.10,15.56,-1.28,-3.69,-42.11,1
-0.12,-0.16,0.97,13.49,0.61,4.21,-1.72,-1.31,-42.79,1
-0.15,-0.16,0.95,-3.66,-8.67,2.87,-2.32,-0.87,-41.88,1
-0.20,-0.12,0.95,-39.61,2.26,7.93,-3.55,-1.81,-42.37,1
-0.17,-0.08,0.98,-8.61,9.89,13.67,-2.89,-4.39,-40.41,1
-0.15,-0.06,0.98,-17.33,-10.74,20.87,-3.87,-4.91,-40.55,1
-0.17,-0.07,0.95,-20.94,-6.90,36.19,-5.00,-5.86,-40.44,1
-0.16,-0.04,1.00,-9.22,21.00,53.96,-6.51,-6.20,-40.37,1
-0.10,-0.07,1.00,1.53,3.05,27.89,-7.34,-5.91,-39.67,1
-0.12,-0.06,1.00,1.77,5.74,28.50,-8.24,-5.19,-40.55,1
-0.07,-0.05,0.95,-0.61,19.84,33.33,-8.84,-4.32,-40.25,1
-0.02,-0.06,0.99,-1.10,9.09,23.44,-8.13,-3.09,-40.45,1
-0.02,-0.16,0.98,-6.35,19.23,15.44,-7.90,-1.99,-41.36,1
-0.00,-0.08,1.10,-0.24,-12.70,19.17,-7.32,-2.67,-42.05,1
-0.06,-0.11,0.95,11.11,9.52,23.68,-9.16,-3.05,-41.15,1
-0.01,-0.11,1.00,1.22,-2.20,20.81,-8.67,-2.39,-40.44,1
0.04,-0.16,1.00,16.30,1.89,27.04,-9.20,-0.72,-41.31,1
0.03,-0.13,0.97,5.92,-2.14,18.55,-9.55,0.72,-41.11,1
0.05,-0.18,0.96,-0.61,-4.09,36.01,-10.69,0.81,-41.61,1
0.00,-0.08,1.05,2.75,8.97,13.18,-10.91,1.87,-42.49,1
0.06,-0.17,0.93,3.66,-3.05,24.90,-11.25,2.39,-42.27,1
0.04,-0.17,1.00,-3.42,-5.86,27.04,-12.01,2.43,-42.35,1
0.02,-0.08,1.00,-2.26,-9.77,28.08,-12.84,2.70,-41.48,1
0.11,-0.11,0.97,-3.48,4.03,18.86,-12.21,3.87,-42.49,1
0.06,-0.10,1.00,-2.99,-4.27,15.56,-12.70,3.65,-42.47,1
0.07,-0.14,0.99,-1.46,0.67,21.36,-13.35,3.75,-41.25,1
0.05,-0.09,0.98,-5.80,-0.31,17.88,-14.27,3.83,-41.63,1
0.05,-0.12,1.01,16.54,3.54,20.57,-14.55,5.64,-41.30,1
0.07,-0.12,1.01,-5.13,-8.97,21.42,-15.14,6.53,-41.72,1
0.04,-0.13,0.99,-8.54,-5.74,17.52,-15.84,7.06,-41.60,1
0.06,-0.14,0.99,7.26,-11.05,13.92,-16.64,7.18,-41.93,1
0.03,-0.08,0.84,1.22,23.07,43.82,-17.47,9.16,-43.38,1
0.07,-0.12,1.05,5.92,2.08,47.24,-17.47,13.16,-43.74,1
0.10,-0.09,1.01,1.34,11.90,28.32,-17.18,14.18,-44.53,1
0.10,-0.09,0.94,-3.72,5.49,27.10,-16.47,16.46,-44.12,1
0.12,-0.10,0.94,18.80,7.75,11.35,-16.02,17.68,-44.04,1
0.14,-0.16,1.00,18.55,-7.93,23.86,-15.64,18.36,-44.54,1
0.14,-0.12,0.95,-9.09,8.79,12.94,-15.60,19.76,-44.75,1
0.15,-0.15,0.99,-6.41,-10.62,2.99,-15.83,19.65,-44.74,1
0.13,-0.14,0.97,9.16,2.38,9.03,-15.93,20.24,-45.17,1
0.14,-0.12,0.97,6.16,6.35,17.70,-15.89,20.91,-45.78,1
0.19,-0.15,0.99,9.40,4.70,46.45,-14.25,22.74,-45.54,1
0.15,-0.16,0.97,4.09,-25.33,24.96,-14.15,24.30,-44.08,1
0.15,-0.13,0.97,-2.87,-19.65,23.13,-15.91,24.91,-44.41,1
0.12,-0.16,1.00,3.30,-2.62,21.91,-16.58,25.32,-44.68,1
0.13,-0.11,0.96,-0.55,-4.70,31.56,-16.65,26.18,-45.18,1
0.10,-0.12,0.95,-1.77,-0.31,34.30,-16.27,27.12,-44.26,1
0.15,-0.10,0.98,-17.09,-1.83,20.69,-15.65,27.38,-44.02,1
0.11,-0.08,0.97,-3.91,-13.37,22.83,-15.63,27.50,-45.78,1
0.11,-0.07,1.00,2.69,-11.11,18.31,-16.58,27.95,-44.98,1
0.11,-0.05,1.00,5.86,2.87,26.25,-16.87,28.19,-44.86,1
0.06,-0.06,0.98,6.16,-6.10,27.34,-17.08,30.13,-43.74,1
0.12,-0.08,1.00,7.63,-5.43,39.25,-16.88,31.70,-44.12,1
0.11,-0.09,0.97,-9.16,0.98,11.60,-16.43,32.18,-43.76,1
0.11,-0.09,0.99,9.64,1.89,11.84,-16.43,32.41,-43.63,1
0.09,-0.10,1.00,8.42,-9.83,9.09,-15.39,33.94,-43.88,1
0.10,-0.10,0.96,16.36,-30.58,16.48,-15.87,34.50,-44.70,1
0.03,-0.13,1.00,9.22,-15.99,22.34,-16.80,36.95,-42.35,1
0.07,-0.18,0.99,-10.74,11.29,7.69,-16.71,38.24,-43.05,1
0.05,-0.10,0.98,-15.01,6.59,16.85,-15.71,37.50,-41.83,1
0.06,-0.10,1.02,-43.40,29.42,72.69,-14.01,36.54,-43.82,1
0.15,0.05,0.93,0.85,7.57,17.64,-8.57,34.67,-45.62,1
0.18,-0.01,0.97,-25.27,0.37,-11.54,-8.53,35.28,-45.62,1
0.17,0.09,0.82,34.48,-21.97,8.79,-9.66,33.54,-45.50,1
0.06,0.03,0.95,-3.72,-6.47,12.94,-10.79,34.94,-44.96,1
0.21,-0.02,0.99,25.45,3.05,30.40,-9.27,34.74,-44.35,1
0.09,0.04,0.96,-19.04,3.23,6.16,-9.03,34.48,-45.14,1
0.08,0.05,0.91,35.83,3.66,21.73,-7.32,36.60,-44.21,1
0.13,-0.09,1.02,10.25,-4.52,71.47,-8.09,39.54,-43.73,1
0.23,-0.06,0.98,-10.01,10.93,75.68,-5.18,40.69,-43.26,1
0.19,-0.07,1.02,12.94,7.32,26.61,-0.87,41.72,-44.06,1
0.13,-0.01,0.97,7.81,2.93,6.23,0.96,41.52,-43.63,1
0.17,-0.05,1.00,-9.22,5.92,7.26,1.76,41.81,-43.55,1
0.22,0.01,0.99,2.81,-4.21,-0.06,2.71,41.24,-43.86,1
0.25,-0.11,1.22,-21.24,0.00,-14.04,2.56,40.30,-43.63,1
0.23,0.12,0.92,-6.53,0.18,1.28,1.55,36.39,-45.57,1
0.19,0.06,1.07,24.90,-31.92,-6.53,1.78,34.80,-45.03,1
0.13,0.08,0.96,5.74,-12.82,2.99,-0.37,35.38,-45.74,1
0.14,0.05,1.01,12.02,-13.31,2.99,-1.53,36.40,-44.90,1
0.06,0.05,1.00,-9.40,-24.72,4.76,-2.49,36.66,-45.48,1
0.06,0.06,0.99,3.23,-12.33,7.51,-3.81,35.21,-45.50,1
0.03,0.07,0.99,9.64,-16.78,9.77,-4.41,36.13,-44.96,1
-0.01,0.03,0.97,0.24,-11.60,10.44,-5.35,36.74,-44.58,1
-0.07,0.05,1.03,-10.01,-15.32,24.60,-5.09,37.43,-45.50,1
-0.06,0.03,0.97,-15.99,20.69,50.90,-7.21,37.11,-45.04,1
-0.01,0.04,0.99,-5.00,-5.43,20.57,-5.11,35.72,-44.97,1
-0.03,0.13,0.97,-2.62,0.98,21.48,-4.98,36.30,-45.03,1
-0.03,0.06,1.00,-9.16,-1.77,16.66,-4.99,35.51,-43.63,1
-0.04,-0.01,0.91,-17.52,0.31,20.45,-4.19,34.53,-46.00,1
-0.09,0.16,0.98,-9.58,-3.05,29.30,-4.27,32.35,-46.23,1
-0.08,0.14,0.98,-2.08,-0.24,28.87,-3.53,31.95,-45.28,1
-0.08,0.17,1.06,33.57,2.08,7.51,-3.33,33.04,-45.06,1
-0.05,0.15,1.00,0.24,10.44,-5.37,-2.34,36.25,-44.80,1
-0.03,0.08,0.99,-0.55,21.73,25.45,-0.87,35.51,-44.97,1
0.00,0.12,0.99,-9.03,16.24,28.56,1.25,35.75,-44.09,1
-0.01,0.13,1.00,-10.25,8.91,36.01,2.59,35.19,-44.60,1
-0.02,0.16,1.03,-9.28,-12.45,33.02,3.23,34.59,-43.60,1
-0.04,0.18,1.00,13.55,-24.54,26.79,3.45,34.24,-43.75,1
-0.06,0.07,1.00,10.74,-3.05,7.69,2.03,35.63,-44.03,1
-0.09,0.07,0.99,-18.19,10.93,22.22,2.95,35.53,-44.25,1
-0.08,0.13,0.97,-11.90,5.86,31.86,5.48,33.69,-44.81,1
-0.04,0.16,0.99,-16.60,-10.56,18.80,5.86,32.45,-44.91,1
-0.06,0.19,1.01,-8.54,10.13,19.78,6.48,31.29,-45.51,1
-0.16,0.37,0.83,16.78,6.84,-12.94,7.95,30.58,-45.20,1
-0.01,0.16,0.99,1.04,22.64,2.01,9.73,30.38,-45.90,1
0.01,0.14,1.00,10.07,17.82,-0.12,11.82,30.86,-44.81,1
-0.02,0.33,0.98,-1.10,6.41,9.28,13.32,31.12,-44.17,1
0.00,0.18,0.96,4.33,5.68,6.10,14.70,30.93,-45.13,1
0.04,0.16,0.98,8.24,-2.26,7.08,14.18,31.47,-44.36,1
0.06,0.15,1.00,-5.00,-6.59,13.18,14.17,31.24,-44.84,1
0.01,0.18,0.90,3.11,14.22,18.92,13.84,30.88,-44.31,1
0.07,0.14,0.96,1.89,-6.35,14.83,15.64,30.93,-43.87,1
-0.01,0.10,0.96,-2.75,-7.20,14.40,14.97,31.47,-44.60,1
-0.04,0.10,1.00,10.07,-8.79,17.76,14.51,30.62,-44.97,1
-0.01,0.12,1.01,-6.35,-10.50,18.62,14.40,30.49,-43.98,1
-0.04,0.09,0.96,-6.65,-20.57,27.34,14.17,30.77,-44.34,1
-0.05,0.14,1.00,1.46,-1.71,12.88,13.77,29.13,-43.46,1
-0.10,0.20,0.89,-42.60,-18.80,9.16,13.35,28.74,-43.62,1
-0.12,0.17,0.99,-15.93,-0.85,20.39,12.72,26.73,-45.13,1
-0.10,0.16,0.97,17.52,3.78,20.81,13.24,24.88,-44.46,1
-0.06,0.14,0.98,12.94,15.81,13.24,14.72,26.05,-43.32,1
-0.05,0.09,0.99,12.02,11.60,19.71,17.11,25.82,-42.35,1
-0.02,0.09,0.99,-0.24,-10.19,15.26,16.52,26.07,-43.29,1
-0.11,0.12,1.00,-0.85,8.06,29.97,15.87,26.10,-42.64,1
-0.12,0.16,1.00,-5.98,-9.95,36.07,18.02,24.18,-42.25,1
0.04,0.12,1.00,-6.84,30.58,8.85,19.35,22.56,-40.95,1
-0.12,0.13,0.98,-3.05,-22.09,42.30,20.03,22.44,-42.55,1
-0.15,0.09,0.96,4.76,-13.85,29.30,19.42,20.85,-42.65,1
-0.10,0.08,1.00,-6.96,3.72,14.16,18.79,20.46,-42.48,1
-0.15,0.09,0.97,8.97,-10.93,13.43,19.40,18.88,-42.68,1
-0.09,0.09,1.02,6.65,-7.93,14.77,18.92,19.54,-42.42,1
-0.14,0.08,0.99,19.35,1.71,24.54,18.35,19.78,-42.31,1
-0.15,0.06,1.00,-8.97,14.89,6.41,19.67,20.47,-42.02,1
-0.07,0.04,0.99,4.03,0.73,5.13,19.71,19.69,-40.86,1
-0.09,0.04,0.99,4.33,1.59,-10.80,20.63,19.51,-41.61,1
-0.10,0.03,1.00,-3.72,-6.23,-11.05,20.69,20.03,-41.39,1
-0.11,0.03,0.98,4.03,-2.87,1.28,20.69,19.82,-41.88,1
-0.12,0.02,1.01,11.11,-0.85,0.61,20.03,20.86,-41.80,1
-0.12,0.01,1.00,10.25,3.05,-0.24,20.26,21.57,-40.58,1
-0.07,-0.00,0.98,-9.58,38.02,18.74,21.29,21.81,-40.27,1
-0.03,0.02,1.03,-11.72,3.48,7.69,23.66,19.26,-39.03,1
-0.03,0.04,1.00,-1.34,0.18,20.20,23.51,18.03,-38.10,1
-0.05,0.06,1.02,-2.08,3.85,11.54,23.93,16.85,-39.87,1
-0.02,0.05,0.99,3.30,1.16,3.42,24.52,16.69,-39.45,1
-0.04,0.06,0.98,4.03,-1.77,4.76,23.62,16.67,-38.81,1
-0.06,0.03,1.00,4.39,-9.58,2.01,24.02,17.10,-39.71,1
0.00,0.01,0.98,2.50,-2.93,5.37,23.75,16.70,-38.77,1
-0.05,-0.01,0.99,9.83,-2.14,6.29,23.93,17.27,-39.69,1
-0.05,0.00,1.01,0.67,-1.34,2.69,23.43,18.09,-38.76,1
-0.04,-0.01,0.99,-2.62,2.14,0.31,23.05,17.43,-38.11,1
-0.03,-0.00,0.98,-5.07,3.78,-0.12,23.56,17.00,-39.03,1
-0.04,0.01,1.01,2.93,-0.12,-1.40,23.73,16.75,-39.03,1
-0.04,-0.00,1.01,-5.55,5.62,0.00,24.30,17.27,-39.12,1
-0.01,0.00,0.99,-1.22,7.87,1.65,25.35,16.85,-38.22,1
-0.02,0.00,1.01,10.62,0.18,16.24,25.77,16.26,-38.35,1
-0.09,-0.01,1.05,3.36,-9.52,24.29,25.35,16.41,-38.76,1
-0.04,-0.02,1.01,-10.86,1.95,16.78,25.32,15.01,-38.49,1
0.04,0.01,0.98,-10.44,16.72,12.57,26.40,12.23,-37.93,1
0.03,0.03,1.00,3.78,3.72,13.24,26.71,11.85,-37.92,1
0.01,0.03,1.00,4.27,-0.73,8.85,27.49,11.17,-37.67,1
0.02,0.02,0.99,0.00,-6.23,4.21,26.44,11.15,-37.48,1
0.00,-0.00,1.02,4.27,-15.14,10.44,26.29,10.63,-38.55,1
-0.02,0.01,1.00,1.40,-4.21,16.72,25.27,10.52,-39.06,1
-0.03,0.01,1.03,6.35,-9.28,21.12,24.50,10.29,-39.59,1
-0.02,-0.00,0.98,-2.62,3.42,20.69,24.32,9.47,-39.37,1
-0.03,-0.01,1.01,1.89,1.53,22.40,24.35,8.91,-40.11,1
-0.04,-0.01,0.99,-2.62,-2.75,21.91,24.61,8.17,-38.83,1
-0.04,-0.02,1.01,-3.78,-6.16,31.01,23.39,6.86,-38.98,1
-0.03,-0.03,1.00,-6.65,-2.56,24.60,23.03,5.47,-39.65,1
-0.02,-0.02,1.00,-3.78,0.18,8.18,22.13,4.06,-40.12,1
-0.03,0.00,0.99,-9.03,1.04,14.16,21.97,3.92,-39.09,1
-0.03,-0.00,1.00,-5.98,-1.34,19.04,21.22,2.59,-38.60,1
-0.03,0.01,1.02,-1.16,4.52,15.50,21.53,2.06,-38.35,1
-0.04,0.02,0.98,0.79,5.86,15.01,20.65,1.04,-38.20,1
-0.00,-0.00,1.01,0.06,-2.01,7.51,20.79,1.35,-38.28,1
-0.07,0.03,1.01,-2.56,-7.57,6.35,19.42,0.59,-38.31,1
-0.10,0.00,1.02,-10.80,-36.44,10.07,16.24,0.74,-40.76,1
-0.11,0.03,1.01,2.81,11.54,36.93,14.36,0.24,-40.63,1
-0.04,-0.01,0.98,8.24,12.51,32.65,15.32,-0.65,-41.10,1
-0.07,-0.05,0.98,-0.12,-10.31,-5.92,17.04,1.18,-39.43,1
-0.01,0.00,0.99,-25.09,2.81,2.14,16.36,0.65,-40.53,1
-0.07,0.02,1.01,0.79,-0.92,1.71,16.47,-0.28,-39.25,1
-0.03,-0.01,0.96,-6.16,5.68,12.63,15.83,-0.45,-39.77,1
-0.01,0.02,0.98,-4.03,2.01,20.32,16.22,-2.15,-39.86,1
-0.07,0.04,0.99,1.22,-2.81,10.50,15.23,-3.04,-37.35,1
-0.04,0.04,1.01,1.04,-1.40,1.16,14.42,-2.67,-38.72,1
-0.03,0.03,0.99,-7.51,4.88,5.25,14.88,-3.17,-39.43,1
-0.01,0.03,0.98,-1.28,6.23,13.00,14.59,-3.77,-38.54,1
-0.05,0.05,1.00,1.10,-5.25,14.59,14.20,-4.69,-37.49,1
-0.02,0.01,0.99,4.15,-10.07,1.83,13.64,-4.48,-38.34,1
-0.15,0.03,1.06,7.87,-9.09,17.76,10.80,-3.31,-38.71,1
-0.07,-0.00,1.00,3.05,1.71,5.31,10.99,-3.50,-40.36,1
-0.07,0.03,0.99,-9.83,5.07,-11.66,10.83,-3.63,-39.29,1
-0.04,0.02,0.97,-4.27,12.39,-25.63,12.67,-3.70,-39.23,1
-0.02,0.02,0.98,-2.56,-5.86,15.69,13.29,-4.33,-38.06,1
-0.06,0.04,1.02,5.00,1.04,36.32,11.05,-3.93,-38.65,1
-0.07,0.04,1.01,11.29,9.03,23.32,10.39,-4.90,-38.89,1
-0.04,-0.01,0.99,-1.65,2.32,16.17,10.00,-4.17,-38.67,1
-0.06,0.04,1.00,-5.74,-0.12,-0.06,9.63,-4.16,-39.93,1
-0.05,0.01,1.00,-7.32,13.49,-42.30,11.35,-4.93,-37.83,1
-0.01,0.00,1.00,1.71,-8.12,10.07,12.46,-4.87,-37.49,1
-0.04,0.00,1.00,12.63,-4.39,42.18,11.87,-5.43,-38.06,1
-0.06,0.01,1.00,0.43,5.31,17.09,9.52,-4.85,-39.56,1
-0.03,0.03,1.04,-16.72,0.85,-67.50,10.34,-5.81,-38.72,1
0.03,0.03,1.00,-2.81,1.40,-38.09,12.63,-5.99,-35.79,1
-0.03,0.06,1.00,11.11,8.79,-14.71,13.93,-5.48,-36.34,1
-0.02,0.05,1.00,3.60,23.38,-36.56,15.71,-5.05,-37.11,1
0.02,0.04,0.99,5.37,5.80,-40.65,18.08,-2.87,-36.83,1
0.04,0.01,1.02,2.01,-7.08,-24.54,18.76,-1.70,-36.90,1
0.00,0.03,1.02,5.25,-5.25,-16.66,18.53,-0.50,-38.01,1
-0.00,0.04,0.99,-5.00,14.22,-42.30,19.69,0.78,-38.82,1
0.06,-0.00,0.97,-10.13,9.34,-44.49,22.16,2.06,-38.22,1
0.00,0.03,1.00,-2.56,-9.03,-14.83,22.69,2.51,-37.61,1
0.02,0.04,1.00,5.49,-12.33,-26.49,23.30,3.25,-38.21,1
-0.05,0.01,1.01,6.16,-0.43,-42.66,22.73,5.18,-39.25,1
0.04,0.03,1.00,-13.31,9.83,-32.35,24.30,7.08,-37.38,1
0.04,0.04,1.01,-4.27,-0.31,-16.42,25.06,7.34,-37.88,1
0.04,0.02,1.00,7.39,-0.49,-18.19,25.12,8.59,-37.38,1
0.03,0.03,0.99,2.14,11.54,-19.59,26.87,9.12,-37.15,1
0.04,-0.01,1.04,-5.55,2.56,-39.86,27.20,11.90,-37.12,1
0.06,0.01,1.01,4.27,-6.23,-39.61,27.31,12.57,-36.95,1
0.05,-0.00,1.00,-5.98,-0.79,-19.29,27.23,14.59,-37.87,1
0.06,-0.01,1.02,1.59,-4.33,-26.31,27.12,16.08,-36.80,1
0.05,-0.00,0.99,-1.53,-3.60,-31.25,27.12,17.08,-37.40,1
0.05,-0.00,1.00,-4.94,-0.85,-26.43,27.26,17.93,-37.37,1
0.04,-0.03,1.02,9.58,-5.68,2.93,26.98,19.58,-38.33,1
0.05,-0.02,1.03,6.10,13.24,-15.14,26.75,19.48,-37.63,1
-0.01,-0.02,0.98,-3.30,-15.99,-34.12,26.11,21.19,-36.87,1
0.04,0.01,1.00,-9.16,-2.93,-46.51,26.15,21.57,-37.62,1
0.07,-0.01,1.03,-6.35,3.85,-30.58,24.56,23.21,-37.55,1
0.05,-0.00,0.98,-6.47,4.88,-20.08,23.40,23.46,-37.19,1
0.04,-0.00,0.98,4.58,-8.00,-5.92,22.41,24.13,-37.35,1
0.07,0.00,0.98,2.08,5.80,23.19,22.63,24.04,-38.07,1
0.03,-0.06,0.98,15.50,-7.87,14.40,23.61,23.95,-37.57,1
0.03,-0.05,0.98,8.30,0.67,-2.62,23.63,23.95,-36.84,1
0.03,-0.05,1.00,-7.69,-6.29,1.83,22.85,23.02,-36.89,1
0.00,-0.02,1.00,-11.78,7.20,3.05,23.12,22.89,-38.11,1
0.05,0.01,0.98,-2.56,8.00,28.99,23.52,20.58,-37.07,1
0.07,0.05,0.97,-13.00,14.47,20.87,24.58,18.85,-36.73,1
0.10,0.01,1.01,1.65,6.23,22.03,26.33,17.69,-35.21,1
0.08,-0.00,0.98,2.44,-9.40,31.37,25.88,16.78,-36.30,1
0.05,-0.01,1.00,0.67,-7.57,37.17,25.02,14.51,-35.38,1
0.02,-0.01,1.03,-3.42,-9.03,49.62,23.95,12.61,-34.68,1
0.06,0.04,1.03,-0.43,-1.59,35.89,24.41,9.77,-36.58,1
0.03,0.03,1.00,-5.37,2.20,19.23,23.66,9.40,-36.15,1
0.04,0.08,0.98,3.17,-5.25,16.17,23.46,7.50,-35.58,1
0.02,0.05,1.01,-5.55,-1.95,6.04,23.88,6.08,-35.24,1
