Acc_X,Acc_Y,Acc_Z,Gyr_X,Gyr_Y,Gyr_Z,Mag_X,Mag_Y,Mag_Z,Posture
-0.06,0.00,-1.00,-0.18,-0.31,-0.24,36.61,17.32,23.71,2
-0.05,-0.00,-1.01,-0.31,-0.18,-0.06,36.50,17.55,24.84,2
-0.06,-0.00,-1.00,-0.06,-0.31,-0.06,36.80,16.92,24.22,2
-0.06,-0.00,-1.00,-0.31,-0.24,-0.18,36.63,17.03,23.49,2
-0.06,-0.00,-1.00,-0.18,-0.37,-0.24,36.84,17.00,24.29,2
-0.06,-0.00,-1.00,-0.24,-0.24,0.06,37.07,16.87,23.35,2
-0.05,-0.00,-1.00,-0.24,-0.12,-0.12,36.47,17.00,24.65,2
-0.06,-0.00,-1.00,-0.06,-0.18,0.06,37.23,16.99,24.90,2
-0.06,-0.00,-1.00,-0.37,-0.31,-0.12,36.29,16.81,23.67,2
-0.06,-0.01,-1.00,8.61,-0.61,16.24,37.06,17.58,23.95,2
-0.05,-0.00,-1.00,-3.85,-0.24,0.24,37.67,16.59,25.12,2
-0.05,0.00,-1.01,1.89,-0.24,-0.12,38.01,16.28,25.84,2
-0.06,-0.00,-1.01,2.75,-0.31,-0.37,37.55,16.72,24.02,2
0.12,-0.05,-1.01,0.49,9.22,-0.55,38.95,17.22,29.03,2
-0.09,0.05,-1.04,-16.60,15.38,-8.30,34.03,15.15,27.88,2
-0.09,-0.00,-1.03,-13.06,-4.70,-3.54,25.83,16.11,30.98,2
-0.05,-0.00,-0.95,2.50,-1.53,0.12,22.66,18.54,35.35,2
-0.05,-0.02,-0.97,4.27,-9.83,-2.32,22.35,17.82,35.44,2
-0.03,-0.03,-1.02,6.23,-2.50,-6.16,22.51,18.03,37.05,2
0.02,-0.01,-0.99,0.12,-7.08,1.40,23.12,18.35,38.01,2
-0.03,0.01,-0.98,3.42,-1.83,-2.50,22.60,17.91,37.93,2
0.00,-0.02,-1.05,0.49,-6.16,0.12,23.11,18.16,38.26,2
0.01,-0.01,-1.01,3.72,4.94,-1.59,23.16,17.68,38.00,2
0.04,-0.00,-1.01,7.93,3.54,-0.55,22.78,17.60,36.58,2
-0.03,0.02,-1.01,4.33,-1.04,-2.44,22.89,17.49,38.42,2
-0.01,0.02,-1.01,-0.18,0.49,-1.53,22.84,16.33,36.95,2
-0.01,0.03,-1.00,2.50,5.37,-3.72,22.84,17.29,37.81,2
-0.03,0.04,-1.02,-6.53,2.69,-0.61,22.44,17.27,36.99,2
-0.03,0.02,-1.02,-13.00,3.11,-2.50,23.05,18.08,36.06,2
-0.01,-0.01,-1.01,17.76,1.71,-3.30,23.63,17.70,37.61,2
-0.02,0.02,-1.00,-1.28,0.12,-2.32,24.00,17.90,37.70,2
-0.01,0.02,-1.00,0.31,-0.12,-2.38,23.93,18.42,36.62,2
-0.00,0.02,-1.00,0.92,1.71,-1.34,24.30,17.86,38.53,2
-0.01,0.03,-0.99,-6.96,-2.81,1.40,25.02,18.07,39.62,2
-0.03,0.02,-1.02,-8.79,-1.53,0.61,25.70,18.21,36.84,2
-0.02,-0.00,-1.02,4.39,8.85,7.14,26.12,18.57,36.72,2
0.00,0.02,-0.99,-3.97,2.32,11.60,26.59,18.44,37.67,2
-0.01,0.02,-1.00,4.58,4.76,7.87,26.22,17.37,36.04,2
-0.05,0.02,-1.01,4.76,-1.34,1.89,26.84,16.87,36.13,2
-0.04,-0.00,-1.02,-2.99,2.87,-1.59,28.45,17.40,35.03,2
-0.03,-0.02,-1.00,0.06,3.42,0.43,29.10,17.96,36.01,2
-0.07,-0.02,-1.05,-0.31,-0.18,-5.55,29.82,18.75,35.38,2
-0.05,0.01,-1.02,7.08,0.18,-13.92,30.52,19.17,35.50,2
-0.02,0.02,-1.01,4.39,-6.16,-10.62,29.42,19.34,36.40,2
-0.01,0.04,-0.98,3.05,-3.11,-6.53,28.81,18.98,36.51,2
-0.02,0.03,-1.02,-7.51,-0.18,-0.37,29.49,20.15,36.69,2
-0.02,0.01,-1.03,-7.39,-0.49,4.09,29.90,19.63,34.72,2
-0.03,0.01,-1.03,0.73,1.04,8.06,29.80,19.63,34.52,2
-0.01,-0.00,-1.02,-0.67,-0.92,5.68,29.72,19.24,36.88,2
-0.01,0.00,-0.99,-4.70,-2.81,6.71,29.02,18.69,37.45,2
-0.01,-0.00,-0.99,-1.40,0.73,5.68,28.82,18.41,36.18,2
-0.03,-0.01,-1.01,-0.31,1.77,1.83,29.86,18.97,35.93,2
-0.02,-0.00,-1.00,-1.46,5.43,-1.65,29.88,18.03,34.74,2
-0.02,-0.01,-0.99,-1.46,-1.53,0.06,30.82,17.97,34.90,2
-0.03,-0.01,-1.01,0.49,1.34,-0.73,31.09,17.54,32.52,2
-0.04,-0.01,-1.00,-0.61,1.22,-3.11,30.54,18.02,34.78,2
0.04,0.01,-1.02,9.34,-40.77,-40.28,30.30,18.85,34.19,2
0.06,0.01,-1.00,0.61,-0.73,-9.16,30.75,20.81,37.02,2
0.05,-0.00,-1.02,-4.09,21.36,0.37,29.14,21.52,36.79,2
0.01,-0.01,-1.00,-3.60,-0.85,-4.09,27.91,20.73,37.51,2
0.00,-0.00,-0.98,-1.46,-4.94,1.65,26.75,20.57,37.59,2
0.05,-0.01,-1.06,-10.38,0.18,9.28,27.19,20.86,36.61,2
-0.04,-0.08,-1.01,-2.69,13.73,13.18,26.11,19.34,32.97,2
0.03,-0.03,-0.97,0.24,7.69,11.72,24.73,18.84,33.44,2
-0.01,-0.02,-1.01,9.40,0.85,5.43,23.93,18.77,33.78,2
-0.01,-0.02,-1.03,1.22,-5.68,6.53,22.67,17.21,32.87,2
-0.02,0.00,-1.01,0.12,-11.17,9.89,22.27,17.21,35.02,2
0.00,-0.03,-1.02,2.56,-5.43,3.91,21.72,16.43,35.03,2
-0.01,0.01,-0.99,3.23,8.97,-0.73,21.48,16.31,35.94,2
-0.02,0.01,-0.99,6.96,-16.05,-19.17,21.91,16.72,35.11,2
0.01,0.01,-1.00,6.96,-5.98,-18.68,22.99,16.76,35.58,2
-0.00,0.02,-1.01,-2.38,13.79,-13.49,23.12,17.80,36.01,2
0.02,0.02,-1.03,-4.03,-3.97,-15.38,22.63,17.88,35.78,2
0.03,0.02,-0.96,-18.37,4.70,-47.55,21.34,19.09,36.80,2
-0.01,0.01,-1.00,0.24,0.55,-31.80,21.51,21.20,36.49,2
0.04,0.00,-0.96,-4.70,-7.87,-17.82,21.51,22.08,37.15,2
-0.02,-0.00,-0.98,-8.97,12.21,-20.08,21.35,23.24,37.32,2
-0.02,-0.00,-1.01,-1.95,-7.69,-34.91,21.02,24.58,35.85,2
-0.01,-0.02,-1.00,3.54,-12.39,-15.69,21.30,27.00,36.84,2
0.03,-0.02,-1.01,-6.04,-0.61,-0.43,21.72,27.11,37.98,2
0.02,-0.01,-1.00,7.26,17.21,25.33,22.46,27.82,37.94,2
-0.04,-0.01,-1.00,-6.59,6.47,-22.83,21.33,26.57,37.94,2
0.00,-0.01,-1.03,9.34,-8.91,-53.59,20.32,28.30,38.55,2
0.01,0.02,-0.99,-2.44,3.72,-28.75,20.32,29.44,37.66,2
0.00,-0.01,-1.01,-3.78,7.08,-13.92,18.73,30.27,38.16,2
-0.02,0.01,-1.03,10.31,3.48,-37.90,18.40,31.57,39.62,2
-0.06,0.04,-0.99,-5.49,-3.78,-33.69,17.13,31.62,40.31,2
-0.05,0.02,-1.05,-10.25,4.21,-31.68,16.63,32.95,38.59,2
-0.06,0.00,-0.98,3.11,10.93,-0.06,15.16,34.01,38.13,2
-0.08,-0.01,-1.04,-4.58,11.78,0.73,14.51,34.31,39.32,2
-0.01,-0.01,-1.00,5.19,-1.95,-38.15,13.16,34.40,40.28,2
-0.05,-0.02,-0.99,-29.54,-4.58,-41.63,12.34,35.06,41.05,2
-0.04,-0.05,-0.98,-1.04,3.05,-9.46,11.21,37.35,40.78,2
-0.08,-0.07,-1.03,6.10,-7.69,-7.26,9.95,36.96,40.91,2
-0.07,-0.04,-1.02,9.34,-12.21,-8.06,10.01,36.65,40.44,2
-0.01,-0.05,-1.00,2.38,-8.06,-6.71,10.69,36.94,39.98,2
0.01,-0.02,-1.02,2.08,1.53,-14.04,10.56,37.13,40.08,2
0.03,-0.00,-0.99,9.09,-2.62,-5.25,9.97,36.36,40.52,2
-0.01,-0.00,-1.04,7.26,-8.06,9.77,10.69,34.99,41.20,2
-0.03,0.02,-1.06,1.46,-5.98,19.96,11.24,35.21,41.31,2
-0.00,0.02,-1.02,-3.11,-7.32,19.23,13.04,34.52,42.10,2
0.01,0.02,-1.02,-9.40,2.38,-18.01,13.48,34.81,41.22,2
0.01,0.03,-1.01,2.14,7.32,-35.10,11.11,35.62,41.16,2
0.01,0.02,-1.00,7.63,-6.29,1.95,11.04,35.47,42.15,2
0.02,-0.01,-0.99,-7.81,-1.89,11.96,11.16,35.39,41.26,2
0.02,-0.01,-1.00,-12.82,-2.56,17.46,12.48,35.73,41.97,2
0.03,-0.03,-1.00,-11.54,-2.93,28.81,14.44,35.61,40.73,2
0.02,-0.01,-1.02,1.04,6.35,25.51,14.26,36.08,39.48,2
0.00,-0.03,-1.00,-0.12,3.66,7.39,14.73,35.45,41.54,2
0.01,-0.02,-1.00,5.74,0.00,0.67,14.97,34.67,40.47,2
0.03,-0.03,-0.99,2.62,0.61,19.23,14.97,34.70,40.08,2
0.00,-0.02,-1.00,-1.89,-0.92,25.82,14.99,34.36,40.39,2
0.01,-0.01,-1.02,3.11,2.44,8.85,15.76,33.08,39.60,2
-0.00,-0.02,-0.99,-3.48,-4.21,3.97,16.49,32.68,40.03,2
0.03,-0.01,-0.96,-2.50,-6.41,12.33,16.61,32.41,41.78,2
0.00,-0.00,-1.01,-6.65,13.18,7.51,17.14,32.08,39.86,2
-0.04,0.01,-1.02,1.59,4.88,-3.48,16.42,32.17,41.28,2
-0.01,-0.00,-1.00,-3.17,-7.45,-66.28,15.75,32.48,40.60,2
-0.01,0.02,-0.98,-2.01,5.62,-38.88,14.21,32.85,41.04,2
-0.03,0.00,-0.99,8.06,2.87,-16.97,12.49,34.84,40.89,2
-0.02,-0.02,-1.01,7.14,6.65,-35.28,11.23,34.69,41.75,2
-0.09,0.03,-1.03,-1.77,5.86,-31.19,9.19,35.58,42.60,2
-0.06,0.03,-1.00,13.61,6.53,-15.20,8.31,35.05,43.55,2
-0.05,0.05,-0.93,-0.31,-8.24,-10.50,7.48,34.39,43.70,2
-0.10,-0.00,-0.90,-27.89,4.15,-5.43,8.02,34.52,42.43,2
-0.02,-0.04,-1.06,-13.55,-2.75,-6.23,7.75,37.70,40.95,2
-0.01,-0.03,-1.02,13.24,-19.17,-10.07,7.45,38.02,41.66,2
-0.10,0.02,-1.08,25.21,12.57,-24.05,7.15,37.22,41.50,2
-0.04,0.02,-0.99,-8.48,2.56,-10.44,5.77,36.58,41.91,2
-0.06,-0.01,-0.98,-19.17,11.17,-16.60,4.61,37.81,41.85,2
-0.12,-0.05,-1.05,-16.30,36.19,-15.32,3.64,38.65,41.64,2
-0.12,-0.04,-1.02,9.40,-3.54,-1.04,1.48,40.08,40.61,2
-0.15,-0.01,-1.00,9.46,-7.57,0.37,1.64,38.34,42.65,2
-0.11,-0.02,-1.01,-4.82,-3.48,-7.20,2.08,38.67,41.16,2
-0.10,-0.02,-1.01,11.41,-2.38,-1.71,2.01,38.42,41.08,2
-0.09,0.02,-1.04,4.76,-22.71,33.26,2.38,38.46,41.28,2
-0.02,-0.00,-0.99,0.37,-9.58,39.25,4.87,36.95,40.39,2
-0.08,0.00,-1.00,12.45,-8.67,46.14,7.80,35.80,40.60,2
-0.03,0.02,-1.02,17.82,2.62,23.44,9.01,35.24,41.03,2
-0.05,-0.02,-0.92,-26.92,1.46,53.34,9.24,34.00,42.21,2
-0.00,-0.04,-1.02,-4.70,-3.66,35.71,11.23,34.96,41.58,2
0.02,-0.06,-0.85,-12.82,-3.17,46.75,12.85,34.73,41.09,2
-0.02,-0.09,-0.99,-12.82,9.89,53.89,13.73,35.78,38.99,2
-0.04,-0.08,-1.00,7.45,4.39,53.04,15.00,34.12,39.88,2
-0.00,-0.07,-0.99,8.48,-2.01,30.70,16.64,32.06,41.16,2
-0.06,-0.06,-1.00,0.73,5.43,24.54,17.99,30.48,40.30,2
-0.03,-0.08,-1.01,0.49,0.49,27.10,17.98,30.18,40.65,2
-0.03,-0.06,-1.03,-3.23,-6.71,36.32,19.89,29.39,41.44,2
-0.03,-0.07,-1.01,2.26,-1.83,38.94,20.53,27.16,40.78,2
-0.04,-0.01,-0.99,-1.77,-2.26,40.89,21.06,25.32,41.17,2
-0.01,-0.07,-1.02,-8.73,6.04,15.99,22.06,24.49,40.39,2
0.09,-0.11,-1.01,-5.86,-1.10,44.62,22.53,24.10,40.67,2
0.02,-0.06,-1.01,-5.25,-4.64,15.20,23.71,22.63,39.10,2
0.01,-0.06,-0.99,4.88,10.31,16.97,23.35,22.11,41.13,2
0.00,-0.06,-0.98,-2.32,5.13,17.76,22.61,20.72,40.78,2
-0.01,-0.05,-0.99,-9.40,-1.22,23.44,22.08,21.04,41.42,2
-0.01,-0.07,-1.01,5.25,0.98,17.15,21.83,19.82,40.70,2
-0.00,-0.04,-1.00,7.93,2.50,20.20,21.70,19.23,40.15,2
0.02,-0.04,-1.00,4.52,5.55,27.77,22.51,17.54,40.15,2
-0.01,-0.04,-1.00,0.79,-14.95,30.88,22.81,16.37,40.44,2
0.00,0.05,-1.05,24.11,8.97,10.50,21.94,13.99,40.06,2
0.00,0.02,-0.98,7.02,10.56,13.31,21.98,12.88,40.95,2
0.01,0.03,-1.01,-8.67,8.42,4.15,21.14,12.40,40.78,2
-0.06,0.00,-0.98,6.29,0.85,19.23,21.33,11.90,40.16,2
-0.01,0.00,-1.04,-3.05,2.75,18.49,20.54,10.19,41.13,2
0.01,-0.01,-1.05,-15.26,-13.79,19.29,21.39,10.51,41.82,2
0.02,-0.02,-0.99,1.04,-6.96,17.03,21.72,10.30,40.55,2
-0.02,-0.01,-0.98,9.70,-2.62,7.08,21.74,10.06,41.75,2
0.00,0.01,-1.01,14.77,6.04,16.48,20.56,7.52,41.44,2
-0.01,0.05,-1.02,-2.81,-2.38,13.73,20.57,7.15,41.70,2
0.01,0.05,-1.00,8.06,1.10,11.29,20.61,6.47,41.69,2
0.06,0.10,-0.99,11.72,14.53,3.60,19.96,4.90,41.76,2
-0.04,0.09,-0.99,-20.69,-18.49,30.03,19.38,4.64,42.11,2
0.03,0.03,-1.02,-13.24,-9.52,21.55,19.96,5.22,40.75,2
0.00,-0.02,-0.99,-7.45,15.01,5.43,19.95,4.71,40.91,2
-0.00,-0.03,-1.01,-13.55,-9.40,4.33,18.82,5.32,42.38,2
0.01,-0.05,-0.98,2.69,0.98,15.14,18.29,4.44,42.87,2
-0.05,-0.00,-0.99,-3.78,13.92,13.24,17.43,4.88,43.97,2
-0.03,-0.02,-0.99,-5.62,0.37,11.54,15.42,5.19,44.89,2
-0.04,-0.01,-0.99,8.24,-2.62,6.77,15.87,4.22,43.82,2
-0.03,-0.05,-1.00,11.23,-6.41,8.00,15.92,2.95,44.07,2
0.00,-0.00,-1.00,3.05,-10.93,13.12,16.61,2.67,43.35,2
-0.00,0.01,-1.00,-5.37,-3.42,21.48,16.74,1.38,42.03,2
0.01,-0.04,-1.04,-9.77,0.98,18.86,16.08,1.27,44.26,2
0.01,-0.05,-1.03,-2.69,3.78,7.81,15.32,1.95,43.33,2
-0.02,0.04,-0.99,-0.31,-6.90,5.07,15.27,2.25,43.20,2
0.02,-0.02,-1.00,9.03,4.94,10.86,15.19,1.99,42.92,2
0.01,-0.02,-1.02,-8.00,0.18,17.94,13.82,1.20,43.80,2
0.01,-0.05,-0.99,-6.53,-3.78,19.04,13.56,1.21,45.42,2
-0.01,-0.02,-1.00,-4.52,-9.77,12.39,13.13,1.31,44.98,2
-0.00,-0.01,-0.99,-0.61,-5.49,11.90,13.09,1.60,45.47,2
0.02,0.00,-1.03,-0.37,-1.89,12.76,12.92,1.39,44.34,2
0.04,-0.04,-0.99,-2.20,-14.59,24.05,13.68,0.56,44.68,2
0.05,-0.01,-1.03,-1.89,21.36,16.48,13.48,-0.24,44.73,2
-0.01,-0.02,-1.02,0.67,16.05,17.33,10.74,-0.44,44.74,2
-0.01,-0.01,-1.02,5.49,3.91,15.32,9.44,-0.57,45.10,2
-0.02,0.02,-1.03,0.73,6.16,25.70,9.83,-1.61,45.24,2
-0.00,-0.02,-1.01,1.10,-7.14,18.74,8.84,-2.73,44.58,2
0.02,-0.00,-1.00,8.85,-14.95,31.43,9.58,-4.26,44.95,2
0.04,0.04,-1.01,3.23,-5.49,24.72,9.06,-4.83,44.54,2
0.03,0.03,-1.00,-2.75,-9.52,17.58,8.68,-5.19,43.51,2
0.06,0.06,-1.02,-2.87,-4.39,-1.83,8.57,-5.48,43.97,2
0.05,-0.01,-1.00,-5.74,-7.51,-13.67,9.18,-4.99,43.65,2
0.07,0.02,-1.01,-5.86,6.90,-20.02,10.08,-4.39,43.57,2
0.05,0.01,-1.01,-3.78,6.96,-9.09,10.25,-4.13,43.86,2
0.03,-0.02,-1.00,-1.53,10.13,-10.68,10.16,-3.63,43.55,2
0.03,-0.02,-1.01,2.20,6.29,-13.85,9.57,-3.16,44.40,2
0.01,0.00,-1.01,-0.61,2.32,-15.32,9.73,-3.05,43.20,2
0.01,-0.00,-1.01,8.30,3.48,-13.67,9.77,-2.34,45.35,2
0.01,0.03,-1.01,2.93,1.77,-11.29,10.36,-2.62,44.20,2
0.00,0.02,-1.02,-1.46,-7.51,-4.46,11.84,-3.12,42.63,2
0.02,0.01,-1.02,-2.01,-3.30,-11.72,12.49,-2.66,44.52,2
0.00,0.00,-0.99,-1.16,-0.55,-11.23,12.84,-3.37,42.27,2
0.00,0.01,-1.00,-2.87,4.82,-8.97,13.05,-2.10,42.71,2
0.03,0.01,-1.01,-9.03,12.51,0.49,12.52,-1.56,44.71,2
-0.02,0.02,-1.01,-12.45,-23.25,42.24,11.47,-1.31,44.70,2
0.03,-0.08,-1.06,8.12,-9.03,25.27,11.99,-1.79,45.29,2
0.08,-0.04,-1.01,18.07,-21.67,36.80,11.76,-3.91,44.48,2
0.11,0.02,-1.02,0.37,-8.24,23.99,10.85,-6.96,43.55,2
0.06,0.05,-1.02,3.91,-2.01,35.52,9.90,-7.90,43.91,2
0.05,0.04,-0.96,12.94,1.40,21.91,9.42,-7.92,44.10,2
0.08,0.06,-0.98,1.16,-19.71,14.71,9.55,-8.15,42.52,2
0.13,0.04,-0.95,-13.85,-8.48,10.74,11.25,-8.41,42.91,2
0.11,0.09,-1.03,-13.18,-1.04,28.63,9.30,-7.79,45.69,2
0.06,0.12,-0.99,1.04,2.62,19.96,8.47,-8.03,44.47,2
0.11,0.07,-0.95,3.11,16.24,3.48,8.07,-8.81,47.45,2
0.13,0.10,-1.10,2.08,1.71,5.74,6.95,-9.19,46.91,2
0.13,0.08,-1.07,-13.49,-19.96,0.67,8.63,-9.18,47.25,2
0.15,0.05,-0.97,4.09,-2.38,12.39,11.01,-9.16,45.95,2
0.17,0.02,-0.97,-8.00,4.15,-1.95,11.01,-9.02,45.09,2
0.17,0.07,-1.01,4.03,-6.53,5.86,8.92,-7.50,43.98,2
0.16,-0.02,-0.98,1.95,3.60,18.80,9.58,-6.68,42.86,2
0.15,0.03,-0.96,0.24,-7.14,16.17,7.74,-6.42,43.15,2
0.18,0.04,-1.06,-2.56,-11.23,26.55,6.16,-5.64,42.69,2
0.16,0.09,-0.97,-1.22,5.19,16.66,6.26,-5.64,42.77,2
0.17,0.07,-1.04,-1.46,12.70,7.14,5.32,-5.41,42.97,2
0.16,0.08,-0.99,-6.59,-6.41,2.44,5.04,-6.48,43.23,2
0.17,0.04,-1.01,-8.00,-2.08,6.53,6.12,-6.04,44.20,2
0.16,0.03,-0.95,-1.95,2.26,9.40,6.29,-6.49,43.69,2
0.15,0.06,-0.97,-0.37,5.98,8.36,5.82,-6.58,43.12,2
0.14,-0.01,-0.99,-9.89,15.32,9.16,5.66,-6.59,43.02,2
0.11,0.02,-0.99,-2.99,8.79,11.41,4.63,-5.64,43.82,2
0.10,0.05,-0.99,-7.39,4.33,16.36,2.51,-5.46,43.32,2
0.09,0.06,-1.01,8.18,21.06,28.32,2.25,-5.40,43.98,2
0.08,-0.03,-0.99,7.81,-0.49,17.76,-0.04,-6.42,43.47,2
0.05,0.03,-0.94,11.54,-5.25,17.15,-0.94,-7.30,43.03,2
0.07,0.10,-1.02,10.07,0.79,9.58,-1.95,-7.37,42.25,2
0.05,0.12,-0.99,-0.98,0.98,12.33,-1.95,-8.12,43.32,2
0.08,0.12,-1.04,12.82,-3.91,26.55,-2.99,-8.00,43.36,2
0.08,0.10,-1.00,4.46,6.29,22.34,-4.30,-8.48,42.96,2
0.02,0.13,-0.98,-8.79,1.59,11.96,-5.43,-8.23,42.77,2
0.02,0.07,-0.98,-2.87,3.97,12.33,-5.96,-7.92,43.97,2
0.00,0.11,-1.05,-6.29,-25.63,14.53,-6.58,-6.37,43.68,2
0.03,0.10,-1.00,-1.77,4.15,11.41,-7.37,-5.74,42.96,2
0.04,0.09,-1.00,-0.06,-0.67,16.05,-7.45,-6.01,43.18,2
0.02,0.06,-1.00,-2.62,-7.87,6.41,-7.37,-5.74,44.38,2
0.05,0.05,-1.01,-6.41,-0.49,6.41,-8.46,-5.03,43.57,2
0.04,0.03,-1.05,-16.11,3.60,10.56,-8.87,-3.87,43.62,2
0.05,0.04,-1.00,-4.94,0.31,16.24,-9.79,-1.98,45.54,2
0.00,0.09,-1.07,7.69,-9.34,7.51,-9.85,-2.29,45.13,2
0.03,0.05,-0.98,12.21,6.47,-1.65,-9.88,-2.69,43.85,2
0.02,0.09,-1.00,7.45,8.30,3.66,-10.69,-3.61,44.29,2
0.03,0.11,-1.01,-3.78,2.50,8.24,-11.93,-4.25,44.34,2
0.03,0.08,-0.96,7.87,11.54,6.47,-11.68,-3.54,43.47,2
0.02,0.05,-0.99,6.04,4.27,6.90,-11.85,-2.89,44.20,2
-0.02,0.03,-1.00,6.23,-4.76,9.52,-13.20,-2.78,43.10,2
-0.03,0.06,-0.97,-8.85,-6.59,18.01,-13.42,-3.23,44.02,2
0.01,0.10,-1.04,-9.22,-10.44,19.90,-12.73,-2.56,44.26,2
0.03,0.06,-1.00,-6.96,-18.19,5.98,-13.07,-1.35,44.95,2
0.05,0.03,-0.97,-5.25,11.47,16.48,-13.21,-0.09,46.06,2
0.01,0.04,-0.97,-0.92,19.65,16.48,-14.94,1.22,45.17,2
-0.01,0.02,-1.04,18.55,1.46,3.36,-15.23,0.50,45.02,2
-0.07,0.05,-0.93,4.94,-7.26,1.40,-16.02,-0.85,44.34,2
-0.01,0.09,-1.06,0.43,11.90,20.69,-17.09,-1.65,44.23,2
-0.03,0.11,-0.98,9.77,6.35,38.57,-17.37,-0.78,44.26,2
-0.03,0.11,-0.97,-7.08,3.66,14.34,-19.51,0.70,44.71,2
-0.02,0.09,-0.97,-0.37,-2.08,-1.28,-20.51,1.92,44.25,2
-0.08,0.07,-0.99,6.96,3.72,11.66,-20.39,1.86,43.86,2
-0.06,0.11,-1.01,1.83,-6.23,13.79,-20.65,1.27,43.27,2
-0.07,0.13,-0.99,-3.05,7.75,23.50,-21.33,1.73,42.85,2
-0.08,0.08,-1.01,-3.42,5.19,30.70,-22.39,3.00,42.54,2
-0.10,0.06,-1.00,-1.89,-0.24,43.95,-24.08,4.88,42.99,2
-0.14,0.06,-1.01,-9.34,2.38,27.53,-24.43,6.64,42.07,2
-0.10,0.04,-0.98,-8.12,-4.94,34.67,-24.61,8.17,41.06,2
-0.10,0.01,-0.99,-7.69,-4.52,23.38,-25.04,10.85,44.29,2
-0.08,0.02,-1.00,6.90,0.92,6.23,-25.10,11.32,42.91,2
-0.10,0.03,-1.01,14.28,1.28,6.23,-25.10,10.83,43.05,2
-0.10,0.04,-1.00,3.85,-4.94,1.16,-25.17,10.61,43.21,2
-0.08,0.05,-1.00,-0.55,-3.30,3.54,-25.24,11.00,42.90,2
-0.07,0.05,-1.01,2.32,-8.00,2.38,-24.33,10.91,42.85,2
-0.07,0.04,-1.00,-5.74,-6.23,1.65,-24.54,10.24,43.84,2
-0.07,0.03,-1.01,-0.31,-2.87,-2.50,-23.06,11.00,42.93,2
-0.05,0.04,-0.99,-4.15,-3.17,-11.72,-22.77,10.88,43.24,2
-0.04,0.04,-1.01,-10.25,-2.56,-7.51,-22.96,10.23,44.24,2
-0.05,0.02,-1.01,-4.33,-3.60,-19.84,-22.89,10.62,44.24,2
-0.04,0.00,-1.01,2.81,-7.26,2.26,-22.47,10.03,44.08,2
-0.03,0.04,-1.02,11.29,-4.33,21.85,-22.28,9.81,44.71,2
-0.01,0.04,-0.99,2.08,-4.46,30.15,-21.59,10.78,44.52,2
0.00,0.03,-0.99,-13.98,-12.45,32.29,-22.89,11.13,44.73,2
0.02,0.00,-1.00,-13.98,-10.74,35.16,-22.35,13.99,44.51,2
0.03,-0.03,-0.99,-9.22,-0.79,33.51,-21.64,16.78,45.20,2
0.04,-0.05,-0.99,-6.59,2.69,37.78,-21.92,19.08,46.20,2
0.01,-0.02,-1.02,4.09,1.46,34.97,-21.96,19.59,45.39,2
-0.05,-0.02,-1.03,1.28,5.07,21.30,-22.46,21.15,45.43,2
0.06,-0.02,-1.00,2.44,7.87,25.27,-22.81,21.55,45.01,2
-0.01,-0.02,-1.02,4.94,-6.59,17.03,-21.91,22.49,45.98,2
0.01,-0.03,-1.00,-2.99,0.12,19.17,-21.90,22.85,44.68,2
-0.07,-0.03,-1.05,-3.05,-5.25,19.96,-21.86,24.45,44.43,2
0.02,-0.01,-0.99,6.96,0.00,-1.71,-21.20,24.94,45.34,2
0.01,-0.02,-1.01,0.06,-0.98,-1.53,-21.78,23.99,44.52,2
0.00,0.01,-1.03,7.87,3.30,-12.15,-20.68,23.49,44.85,2
0.01,0.01,-1.02,-4.52,-0.49,-24.78,-21.52,23.36,45.10,2
-0.01,-0.00,-1.00,-6.84,-0.67,-17.94,-21.45,23.03,45.13,2
0.02,-0.01,-1.00,1.04,2.75,-25.15,-22.07,21.96,44.21,2
0.00,-0.01,-1.02,-0.37,2.44,-16.24,-22.06,21.90,44.09,2
-0.00,-0.00,-1.00,16.42,5.37,-17.21,-22.22,19.91,43.52,2
-0.02,0.01,-1.01,7.20,7.87,-21.24,-22.72,18.31,45.79,2
-0.03,0.04,-1.00,5.92,4.94,-8.97,-23.38,17.90,43.23,2
-0.04,0.05,-1.02,3.91,3.85,-3.85,-23.83,16.80,44.40,2
-0.05,0.03,-1.00,-0.85,-2.32,0.98,-23.50,16.48,43.19,2
-0.03,0.05,-1.01,-1.83,-9.22,15.50,-23.05,17.10,44.26,2
-0.02,0.03,-1.03,0.98,-1.71,5.07,-23.46,17.35,43.86,2
-0.02,0.06,-1.01,1.95,-3.42,-3.72,-22.63,17.32,44.45,2
-0.00,0.05,-1.00,-3.78,-9.46,-8.48,-22.81,16.98,43.99,2
-0.01,0.01,-0.98,-22.71,-10.99,0.37,-21.87,18.19,45.98,2
0.01,-0.02,-1.04,-19.04,-15.20,11.41,-21.41,19.43,44.17,2
0.06,-0.07,-1.02,-14.04,0.55,5.98,-19.49,21.75,46.73,2
0.05,-0.06,-1.04,7.39,6.96,17.03,-20.41,22.86,45.98,2
0.02,-0.01,-1.08,9.34,5.07,12.94,-21.51,23.18,45.39,2
0.01,-0.01,-1.00,9.22,3.60,-4.21,-21.33,22.11,45.24,2
0.03,0.01,-1.00,13.67,5.49,-12.39,-21.35,20.37,44.38,2
-0.01,0.04,-1.04,10.74,8.00,-22.46,-22.41,18.88,45.06,2
-0.00,0.04,-1.00,11.17,6.35,-12.57,-22.58,16.64,44.98,2
-0.03,0.07,-0.98,15.50,11.11,-10.44,-23.11,15.82,45.76,2
-0.03,0.09,-1.01,2.20,0.31,-6.65,-23.68,14.54,43.62,2
-0.03,0.08,-1.01,-14.95,-7.81,-12.33,-23.27,14.58,43.98,2
0.01,0.03,-0.99,-23.80,-14.59,-16.72,-22.66,15.63,44.41,2
0.02,-0.00,-1.01,-12.33,-8.67,-10.13,-22.25,16.41,45.14,2
0.02,-0.01,-1.02,1.40,0.18,-12.88,-20.72,15.75,46.02,2
0.01,-0.01,-1.01,8.85,1.04,13.61,-21.20,15.63,45.10,2
0.02,0.03,-1.01,-7.69,-4.46,35.46,-20.96,16.39,45.48,2
0.02,0.01,-1.03,-2.14,-2.87,12.88,-20.95,17.08,44.17,2
0.04,-0.00,-1.00,8.79,0.06,12.88,-20.97,17.36,44.71,2
0.04,0.03,-0.96,1.59,0.12,16.24,-20.56,17.50,45.14,2
0.02,0.04,-1.02,-6.23,2.69,16.11,-21.58,20.13,45.46,2
0.02,0.02,-1.03,-2.50,2.08,10.07,-22.08,20.29,45.39,2
0.00,0.05,-1.00,13.98,4.21,-5.13,-22.13,20.34,44.96,2
0.00,0.03,-1.01,10.74,6.10,-46.75,-22.96,17.97,44.82,2
0.00,0.03,-1.01,-5.98,-6.47,-27.95,-22.72,15.88,44.38,2
0.00,0.05,-0.99,4.33,-3.85,-8.36,-21.92,15.99,44.92,2
0.01,0.05,-1.02,-3.11,-3.78,-3.85,-21.44,15.15,45.32,2
0.02,0.07,-1.02,26.79,6.47,0.49,-21.72,14.81,45.01,2
0.00,0.13,-1.00,32.47,17.94,1.53,-22.81,11.77,43.92,2
-0.04,0.12,-1.01,-16.30,-3.05,13.43,-23.84,11.19,43.09,2
0.01,0.05,-0.99,-46.20,-18.80,48.71,-22.73,14.61,44.01,2
0.00,0.01,-1.02,-13.18,-2.62,9.03,-21.74,19.63,45.61,2
-0.00,0.02,-1.01,4.27,5.92,14.04,-21.67,19.95,45.28,2
0.00,0.01,-1.00,3.48,0.55,7.87,-22.03,19.82,45.79,2
0.01,0.01,-1.00,-2.20,-1.34,2.87,-22.41,20.01,45.31,2
-0.00,-0.00,-1.02,-9.52,-4.58,17.33,-22.16,20.98,45.68,2
-0.00,0.04,-1.02,11.17,4.82,26.00,-22.16,21.68,44.96,2
-0.00,0.03,-0.99,5.37,0.92,5.80,-21.97,21.48,45.12,2
-0.01,0.01,-1.02,-21.61,-5.13,15.38,-21.24,22.61,45.10,2
0.00,0.04,-1.01,4.27,6.35,-4.88,-21.48,23.45,45.01,2
0.01,-0.09,-1.03,-4.27,-8.06,7.87,-21.90,22.55,44.74,2
-0.02,0.05,-1.04,1.53,-1.16,-21.30,-21.23,22.28,43.58,2
0.00,0.03,-1.01,-4.15,-1.83,-36.56,-21.81,21.40,45.80,2
-0.01,0.05,-0.99,6.96,8.79,-21.18,-21.90,20.47,45.45,2
-0.01,0.03,-1.00,2.75,8.18,-14.89,-22.41,18.41,44.59,2
-0.02,0.03,-1.00,-3.85,1.83,-11.29,-23.13,17.92,45.69,2
-0.02,-0.00,-1.04,-6.90,-2.01,26.25,-23.62,18.29,44.73,2
0.00,0.05,-0.99,-6.10,-12.02,39.55,-21.83,20.53,43.10,2
0.00,0.02,-1.03,-7.20,-1.34,19.17,-21.55,21.06,46.08,2
0.02,-0.07,-0.97,18.74,15.38,22.71,-21.37,22.12,45.31,2
0.00,0.11,-0.99,37.35,8.54,44.25,-21.97,20.59,44.75,2
-0.03,0.20,-0.99,-5.86,-4.03,27.10,-22.11,20.67,44.12,2
-0.02,0.05,-1.02,-20.75,-9.95,21.24,-22.24,22.12,44.76,2
-0.02,0.12,-0.98,-0.06,-7.93,26.73,-21.14,24.32,44.43,2
-0.02,0.04,-0.99,-11.78,-14.59,7.87,-20.46,25.92,44.35,2
0.02,0.07,-0.86,1.22,2.81,14.77,-19.64,26.61,44.60,2
-0.03,0.07,-0.97,35.58,7.26,9.34,-21.23,24.67,46.07,2
-0.05,0.17,-0.95,-10.01,-3.97,-7.26,-21.19,24.52,44.48,2
-0.04,0.17,-1.03,19.41,19.59,49.13,-21.33,24.44,44.65,2
-0.05,0.12,-1.01,-5.37,-3.85,22.52,-21.09,26.34,44.93,2
-0.04,0.11,-1.02,3.54,-8.24,10.93,-20.58,27.01,44.03,2
-0.03,0.09,-1.01,-15.99,-8.91,12.82,-20.18,28.37,44.09,2
0.01,0.12,-0.99,7.93,-8.73,12.51,-19.15,28.85,45.51,2
0.00,0.10,-0.99,1.10,-0.31,10.68,-18.15,29.02,45.03,2
-0.02,0.07,-1.01,-8.00,-9.22,13.85,-17.58,28.96,45.76,2
0.02,0.08,-0.95,-5.68,-15.87,15.14,-16.86,30.43,45.23,2
0.04,0.04,-0.96,-5.80,-9.09,16.54,-14.01,31.15,45.78,2
0.03,-0.02,-1.07,7.75,-10.68,21.24,-12.46,31.85,46.66,2
0.04,-0.00,-0.98,-6.16,-3.78,16.97,-10.96,32.39,45.70,2
0.10,0.04,-1.00,3.11,-5.55,11.78,-10.24,33.03,45.37,2
0.09,0.07,-1.03,-0.49,-6.59,12.82,-9.45,33.36,45.41,2
0.09,0.05,-1.02,-8.61,16.60,6.23,-9.63,33.24,46.09,2
0.04,0.00,-0.99,-6.04,12.45,10.99,-10.05,35.01,45.76,2
0.07,0.01,-0.96,-10.19,8.85,14.59,-10.82,35.80,43.80,2
0.01,-0.07,-0.99,-5.19,1.40,14.83,-10.16,37.48,44.15,2
0.02,-0.00,-1.05,-3.91,-2.81,24.05,-10.44,37.19,44.20,2
0.05,-0.02,-0.99,-8.30,-1.65,24.60,-9.92,37.89,44.60,2
0.05,-0.06,-1.02,16.42,4.82,12.94,-8.57,38.62,43.41,2
-0.00,-0.02,-1.01,6.47,0.43,0.61,-8.14,38.22,44.30,2
0.03,-0.01,-1.00,10.31,6.41,-7.75,-8.89,37.17,44.60,2
0.05,0.04,-1.00,13.85,-0.31,3.36,-9.40,36.38,45.31,2
0.00,0.09,-1.04,13.92,6.53,1.04,-9.20,35.18,44.67,2
0.01,0.07,-1.01,11.66,-1.16,0.43,-8.89,33.67,45.28,2
0.00,0.11,-0.98,-0.55,-2.26,6.84,-9.34,33.54,46.98,2
-0.01,0.10,-1.04,-1.83,0.43,5.37,-8.96,33.56,47.23,2
0.01,0.07,-1.00,-5.31,-0.24,3.30,-8.94,34.07,45.84,2
0.00,0.10,-1.00,-1.89,-2.38,5.31,-8.29,34.17,46.37,2
0.02,0.14,-0.99,-4.09,-7.20,2.50,-8.34,34.24,45.20,2
0.02,0.10,-1.02,-5.49,-11.23,9.77,-7.86,34.80,45.30,2
0.04,0.03,-0.99,-8.36,-6.35,10.19,-6.48,35.27,45.43,2
0.04,0.01,-1.01,-6.35,11.54,15.87,-6.08,36.65,44.71,2
0.02,0.01,-0.99,1.95,0.24,5.19,-5.98,36.95,45.90,2
0.02,0.04,-1.00,4.27,0.12,2.26,-5.47,36.58,44.87,2
0.03,0.07,-1.00,14.28,7.63,-0.98,-6.47,36.22,45.24,2
-0.02,0.04,-0.97,-1.77,11.05,3.30,-6.86,35.52,46.98,2
-0.04,0.03,-0.98,-2.75,-0.24,4.64,-7.07,34.72,46.70,2
-0.01,0.08,-1.02,-8.79,1.65,0.92,-7.63,36.18,45.03,2
-0.01,0.06,-1.00,-3.23,1.89,1.04,-7.58,36.95,44.60,2
-0.00,0.02,-1.04,-16.48,10.13,15.99,-7.01,38.31,44.97,2
-0.03,0.05,-0.99,-0.24,-3.66,22.89,-6.81,38.00,44.34,2
-0.02,0.04,-0.99,1.46,1.16,9.03,-6.73,38.11,44.40,2
-0.05,-0.03,-1.00,5.00,-0.06,1.16,-6.09,38.04,43.93,2
-0.04,-0.02,-1.05,0.18,-1.53,2.14,-5.16,38.46,44.14,2
-0.01,0.04,-1.01,2.93,-2.20,1.89,-6.15,39.16,44.53,2
-0.02,0.04,-0.97,-5.43,-1.46,5.49,-5.86,38.56,44.98,2
-0.00,-0.04,-1.00,1.59,-6.41,12.82,-4.69,38.68,44.54,2
-0.00,0.01,-0.98,7.08,-8.97,8.61,-3.81,37.93,43.99,2
-0.03,0.03,-0.99,-5.37,6.71,-2.50,-3.27,38.05,45.07,2
-0.06,0.03,-0.99,-0.37,8.79,-10.44,-4.04,38.84,44.51,2
0.00,-0.03,-0.95,8.54,5.55,-1.22,-5.09,39.37,44.81,2
-0.05,-0.00,-0.98,2.56,-10.13,37.48,-4.28,39.32,45.84,2
-0.02,0.02,-1.06,9.64,-12.76,17.94,-2.23,39.44,43.48,2
0.01,0.02,-1.04,-0.18,0.24,6.77,-1.48,39.10,46.29,2
-0.01,0.03,-1.02,7.08,14.71,2.14,-0.78,38.50,45.13,2
0.03,-0.01,-1.00,-18.19,-18.25,12.82,-0.71,39.15,46.22,2
0.08,-0.04,-1.01,-12.82,-27.16,36.93,2.12,41.24,45.03,2
-0.02,-0.04,-0.95,32.10,-3.17,-6.90,4.10,40.12,44.59,2
0.03,0.05,-1.01,-9.40,3.91,3.72,3.39,38.68,44.73,2
0.08,0.00,-1.00,-0.37,2.32,10.80,3.54,38.50,44.92,2
0.03,0.04,-1.06,10.86,4.82,-0.73,3.41,39.01,44.38,2
0.02,0.06,-1.03,24.35,13.98,0.18,2.27,37.11,46.83,2
0.00,0.07,-1.02,-6.35,7.08,7.63,1.23,36.72,47.12,2
-0.00,0.04,-1.04,-16.24,-1.53,-1.95,0.68,36.68,45.12,2
0.04,-0.02,-0.97,-8.73,-3.66,-1.65,0.32,38.78,46.24,2
0.03,0.05,-1.00,-2.99,-3.42,-2.20,1.45,38.93,46.25,2
0.06,0.14,-1.05,-14.77,6.35,13.18,1.53,39.82,45.30,2
0.02,0.00,-0.97,9.89,-7.20,12.82,1.09,39.98,45.18,2
-0.00,-0.11,-1.03,13.79,-7.32,7.14,2.23,37.24,46.53,2
0.03,0.07,-0.99,27.95,0.06,6.16,3.19,35.66,46.18,2
0.03,0.18,-1.02,-1.46,2.44,11.72,3.82,34.19,47.84,2
0.06,0.19,-1.05,-5.62,0.79,10.13,3.86,34.89,47.00,2
0.03,0.05,-0.99,-10.31,13.73,1.46,4.15,34.51,46.88,2
0.01,0.10,-0.98,6.96,9.64,5.68,3.10,35.33,46.19,2
0.02,0.13,-1.01,-5.49,4.27,8.91,3.12,34.78,47.45,2
-0.01,0.06,-1.02,-5.62,6.96,7.69,4.08,34.84,46.09,2
0.02,0.08,-0.98,-0.43,-2.08,7.93,3.31,34.52,46.64,2
0.01,0.08,-0.99,2.87,7.87,9.52,4.31,34.94,46.22,2
-0.01,0.10,-1.02,2.75,-4.94,11.05,4.90,33.83,46.62,2
-0.04,0.08,-1.00,0.06,-9.58,11.78,5.35,33.68,46.63,2
-0.02,0.10,-1.01,-11.90,-8.06,9.89,6.13,34.56,46.04,2
0.01,0.02,-0.99,-8.97,-3.11,16.48,7.15,35.56,46.56,2
-0.02,0.02,-1.00,-20.32,13.43,27.95,7.56,37.66,45.17,2
0.00,-0.04,-1.02,1.04,17.58,15.44,6.57,37.90,45.68,2
-0.05,0.00,-0.98,7.93,1.16,-4.09,6.62,37.34,45.58,2
-0.06,0.01,-0.98,8.36,0.67,-2.93,6.37,36.41,45.20,2
-0.04,0.04,-0.97,7.87,7.39,-6.71,5.11,35.62,46.52,2
0.01,0.04,-1.02,2.81,4.82,-37.60,4.85,35.80,46.58,2
-0.05,0.06,-1.00,3.42,-2.01,-28.02,3.91,36.78,46.36,2
-0.03,0.06,-1.00,-0.24,-2.44,-20.51,3.00,36.62,45.54,2
-0.07,0.05,-1.00,0.18,-0.92,-14.34,2.62,36.74,45.83,2
-0.05,0.04,-0.99,1.89,4.39,-19.23,2.29,36.16,45.96,2
-0.05,0.04,-1.00,-6.04,-1.89,-17.88,1.03,36.85,45.10,2
-0.04,0.05,-1.02,-4.64,-5.62,-24.90,1.04,37.12,45.10,2
-0.00,0.05,-1.00,1.34,-0.98,-19.35,0.73,37.39,45.35,2
0.00,0.05,-0.97,-3.48,2.69,0.00,-0.06,37.92,44.80,2
-0.01,0.05,-0.99,-1.53,5.49,6.77,-0.48,37.71,45.03,2
-0.03,0.03,-1.02,-4.03,-6.04,14.40,-0.32,38.38,46.75,2
-0.01,0.05,-1.00,6.29,-22.03,19.17,1.09,38.53,46.11,2
0.04,0.05,-0.99,-2.20,3.60,2.62,3.14,37.46,45.52,2
0.02,0.05,-1.01,0.06,-0.73,3.42,2.84,38.26,45.79,2
0.01,0.04,-1.00,0.61,-1.53,1.10,3.69,37.65,45.83,2
0.01,0.05,-1.01,-0.79,-0.24,4.27,3.20,37.60,46.24,2
0.03,0.02,-0.96,0.79,-6.84,10.74,4.16,36.66,46.26,2
0.01,0.01,-1.01,-7.39,-5.13,30.52,4.98,37.73,45.15,2
0.01,0.02,-1.00,-14.34,8.24,33.51,5.49,38.44,44.52,2
0.01,0.02,-1.04,-2.69,-7.14,9.95,5.98,38.65,43.77,2
0.01,0.00,-1.01,6.23,-11.78,4.09,7.32,38.32,44.40,2
0.05,0.01,-0.97,7.57,-18.92,6.47,8.54,37.94,44.92,2
0.06,0.01,-1.05,-6.10,13.98,5.07,8.68,38.46,44.65,2
0.07,0.04,-1.02,1.77,3.42,1.04,8.46,38.38,43.73,2
0.03,0.02,-1.08,-17.94,14.77,9.70,8.29,39.04,44.17,2
-0.04,-0.04,-0.99,-9.16,8.06,4.39,7.74,39.17,44.40,2
0.05,-0.07,-0.98,-0.92,18.37,-19.10,5.64,40.26,43.10,2
-0.02,-0.02,-1.04,-5.37,-7.26,0.61,6.08,40.25,42.74,2
-0.17,-0.07,-0.90,0.73,-6.59,9.64,6.24,40.23,41.94,2
-0.00,-0.06,-1.08,-1.22,-4.15,10.50,6.53,40.83,43.58,2
-0.02,-0.04,-1.00,-2.75,-0.79,8.85,7.29,40.71,43.60,2
0.01,-0.06,-1.00,6.04,3.72,0.49,7.23,41.33,42.59,2
-0.04,-0.08,-0.99,3.54,3.97,9.77,6.86,40.10,43.23,2
-0.06,-0.05,-1.03,5.86,-4.76,20.81,7.39,40.31,44.56,2
-0.05,-0.04,-1.02,6.04,-8.67,22.64,8.30,39.56,42.71,2
0.00,-0.03,-1.02,7.93,-5.74,6.71,9.74,38.54,43.23,2
0.01,-0.02,-1.00,-0.31,-1.71,0.43,10.25,36.44,44.20,2
0.00,-0.01,-1.01,0.43,1.95,-5.68,10.12,37.06,44.90,2
0.02,-0.00,-1.00,4.27,-4.52,-15.69,9.89,38.06,44.43,2
-0.06,0.15,-1.00,-2.08,22.16,-47.79,9.39,37.26,44.76,2
-0.04,-0.04,-1.05,-10.50,27.16,-51.39,6.21,38.12,45.03,2
-0.06,-0.01,-1.03,-3.66,5.49,-22.95,3.49,39.40,46.84,2
-0.04,0.02,-1.01,13.18,-1.59,9.46,2.75,39.04,45.69,2
-0.04,0.02,-1.02,1.77,0.92,22.22,4.09,38.06,45.40,2
-0.04,0.05,-1.03,2.99,-9.34,21.48,5.41,37.39,45.91,2
-0.04,0.05,-1.00,1.95,-7.75,22.71,6.90,36.79,46.68,2
0.00,0.04,-1.00,-1.95,-8.48,19.53,7.56,36.91,46.30,2
-0.03,0.07,-1.02,-4.76,-5.49,23.07,9.06,36.29,46.01,2
-0.02,0.04,-1.02,-0.73,-0.79,16.72,10.50,36.54,45.20,2
-0.01,0.03,-1.00,3.54,10.56,10.19,10.85,35.86,43.66,2
-0.04,0.03,-1.02,6.10,21.79,11.78,10.46,35.16,45.04,2
-0.05,0.03,-0.97,2.38,8.36,13.73,9.12,34.00,45.68,2
-0.06,0.04,-1.00,-3.17,-9.40,15.81,9.81,34.28,45.89,2
-0.06,0.05,-1.02,-2.20,-7.32,15.14,10.83,34.08,45.85,2
-0.04,0.03,-1.00,1.71,0.98,18.37,11.43,33.87,45.63,2
-0.04,0.04,-1.01,3.48,-0.06,22.03,11.95,33.39,46.95,2
-0.05,0.04,-1.02,2.26,4.03,11.41,12.63,32.29,46.62,2
-0.06,0.03,-1.01,1.77,5.07,14.47,12.67,31.90,44.58,2
-0.06,0.04,-1.00,6.23,2.99,12.94,12.73,31.62,45.26,2
-0.08,0.05,-1.00,9.40,2.38,15.69,13.26,30.30,46.83,2
-0.08,0.07,-1.03,9.22,-1.89,11.11,13.95,29.00,47.01,2
-0.07,0.06,-0.98,-6.47,-7.51,19.59,13.93,28.22,46.75,2
-0.04,0.04,-1.00,-17.58,-5.62,22.52,14.51,28.60,47.50,2
-0.06,0.02,-0.98,-1.46,-9.16,15.01,15.94,29.63,45.48,2
-0.10,0.04,-1.06,1.46,-4.21,14.77,16.99,28.47,44.95,2
-0.06,0.05,-0.99,5.13,-17.76,-21.06,17.29,28.54,45.74,2
0.01,0.03,-1.05,-9.58,6.41,-31.92,17.21,29.03,44.95,2
-0.05,0.02,-0.98,-2.99,18.07,-42.91,14.78,30.85,45.72,2
-0.11,0.02,-0.98,-2.32,22.58,-35.64,11.04,32.31,46.78,2
-0.14,0.04,-1.00,6.41,4.46,-17.15,8.39,33.47,46.78,2
-0.11,0.03,-1.03,3.36,-7.08,-15.87,8.42,33.45,45.80,2
-0.11,0.03,-1.01,-4.64,5.25,-32.23,8.36,34.23,45.95,2
-0.13,0.04,-1.01,-6.65,6.29,-23.62,6.68,34.41,45.20,2
-0.12,0.03,-0.99,-8.61,10.50,-22.89,6.19,34.74,45.70,2
-0.12,0.02,-0.99,-1.83,0.12,-16.85,4.36,35.72,45.34,2
-0.15,0.03,-1.01,5.43,-9.03,-4.46,4.55,36.38,45.02,2
-0.13,0.05,-1.02,0.12,-2.99,-11.96,5.19,35.67,46.15,2
-0.10,0.03,-1.00,-1.65,5.86,-36.32,4.72,35.53,45.40,2
-0.13,0.05,-0.98,-2.75,-1.04,-29.97,2.80,36.25,46.58,2
-0.11,0.05,-1.05,7.57,0.31,-16.85,1.62,36.43,45.02,2
-0.12,0.05,-0.98,-3.23,-3.30,-8.06,1.00,36.47,45.24,2
-0.12,0.03,-1.01,-5.86,-5.62,-15.99,1.29,36.85,44.41,2
-0.12,0.05,-0.98,4.94,-10.99,-20.94,1.18,37.74,44.76,2
-0.07,0.03,-1.00,15.14,1.10,-22.58,0.88,37.89,44.34,2
-0.09,0.06,-1.00,-12.15,-18.55,-11.96,0.20,38.04,45.30,2
-0.04,0.05,-1.00,-9.58,-10.50,-1.40,1.10,38.31,45.45,2
-0.05,0.04,-1.02,12.88,-7.75,-8.48,1.98,38.44,44.81,2
-0.06,0.07,-0.98,2.38,3.48,-20.32,1.37,37.46,44.79,2
-0.08,0.09,-1.05,2.08,5.62,-11.54,0.94,37.37,45.30,2
-0.11,0.05,-1.00,2.87,-26.67,-19.35,0.73,37.05,45.10,2
0.02,0.04,-0.95,4.09,3.91,-26.98,0.88,35.99,45.15,2
-0.07,0.07,-1.02,-11.66,-6.84,-47.91,-0.35,36.02,45.34,2
0.02,0.06,-0.93,-29.79,19.47,-30.33,-3.16,38.23,44.97,2
-0.02,0.02,-0.99,-3.11,10.74,-12.33,-5.25,38.53,45.26,2
-0.04,-0.01,-0.99,-0.55,-8.00,-23.44,-5.49,38.06,45.76,2
-0.04,0.02,-1.01,4.46,-0.18,-16.17,-5.16,39.29,44.58,2
-0.02,-0.02,-1.00,1.16,1.46,-36.13,-6.64,38.33,45.34,2
-0.03,0.02,-1.02,10.93,-30.88,-8.12,-7.15,38.53,43.32,2
0.00,0.01,-0.94,-7.08,-29.97,-12.88,-5.86,38.50,44.86,2
0.00,0.04,-1.14,6.16,7.45,-13.55,-5.65,39.21,43.52,2
-0.02,-0.06,-1.01,27.04,9.52,-36.13,-7.82,37.06,43.92,2
-0.02,0.06,-0.99,-3.91,19.04,-21.79,-8.79,36.25,45.61,2
0.01,0.13,-1.09,25.88,-18.55,-31.07,-10.45,35.16,44.08,2
0.03,0.14,-1.06,-3.48,-43.58,-46.45,-9.40,33.11,45.37,2
0.12,0.03,-1.00,3.30,-6.77,-46.39,-9.45,33.13,46.96,2
0.12,0.09,-1.03,-7.75,2.44,-22.52,-11.29,32.36,46.46,2
0.09,0.00,-0.94,2.56,6.96,-3.23,-11.99,32.84,45.72,2
0.06,0.05,-1.00,1.34,9.64,-17.58,-13.83,31.91,44.07,2
0.04,0.04,-1.02,6.10,2.56,-19.59,-14.86,31.19,45.64,2
0.09,0.14,-0.98,0.43,4.76,-31.37,-17.36,29.20,45.04,2
0.04,0.12,-0.95,3.54,-8.73,-4.94,-18.25,28.06,45.19,2
0.08,0.13,-0.94,-10.56,-2.93,-0.73,-18.64,26.64,45.01,2
0.03,0.08,-1.00,-6.35,6.16,-0.18,-19.04,27.39,44.57,2
0.03,0.09,-0.96,-16.78,8.36,-6.29,-20.52,27.48,45.42,2
0.03,0.06,-1.02,0.73,6.35,-9.89,-21.45,28.22,44.35,2
0.02,-0.01,-1.02,1.53,0.73,-6.10,-21.58,27.00,44.06,2
-0.00,0.04,-1.00,-0.98,-1.10,-13.85,-21.77,27.75,43.60,2
0.01,0.04,-0.98,-3.42,10.62,-5.80,-21.95,27.04,43.24,2
0.01,0.04,-1.02,-2.14,2.20,-10.07,-22.03,27.64,43.12,2
-0.00,0.01,-1.01,2.32,11.96,-19.65,-22.68,27.32,42.71,2
-0.03,0.04,-1.02,-3.72,10.19,-27.59,-23.03,26.42,42.00,2
-0.04,0.02,-0.97,-2.20,1.28,-17.40,-23.80,25.90,42.48,2
-0.03,0.02,-0.99,-14.89,-11.72,-20.81,-23.49,25.05,43.15,2
0.00,-0.03,-1.00,3.72,-11.60,-12.45,-23.02,25.77,42.92,2
0.00,-0.02,-0.99,10.80,-6.29,-14.53,-22.51,25.05,43.13,2
0.02,0.04,-1.02,10.56,3.72,-4.76,-22.39,24.34,42.96,2
0.02,0.04,-1.01,-3.36,-10.93,-1.34,-22.29,23.56,42.55,2
0.06,0.03,-0.99,-7.26,-24.05,-2.81,-21.07,24.44,45.75,2
0.04,0.03,-0.99,-6.10,-12.39,-9.58,-19.34,24.17,45.32,2
0.09,0.02,-1.04,2.14,-1.40,-9.03,-19.20,24.05,45.18,2
0.10,0.00,-0.99,4.39,-0.79,-8.24,-19.49,24.45,44.40,2
0.11,0.03,-1.01,10.80,4.09,-6.53,-19.34,23.94,44.64,2
0.06,0.07,-0.99,-0.18,-1.59,-1.77,-19.40,23.35,45.65,2
0.10,0.01,-1.01,-3.97,-12.08,2.75,-18.35,24.22,44.97,2
0.13,0.01,-0.99,-3.97,1.28,10.68,-18.58,24.76,45.46,2
0.12,-0.00,-1.01,-0.43,-3.78,7.51,-17.48,25.88,47.00,2
0.13,0.02,-0.99,-1.10,2.81,7.08,-17.42,26.46,46.11,2
0.11,0.02,-1.00,4.15,5.25,0.55,-17.54,26.82,46.70,2
0.08,0.02,-1.02,5.86,2.14,1.22,-18.40,25.92,46.06,2
0.08,0.05,-1.00,4.21,6.47,-0.98,-19.07,25.72,46.63,2
0.08,0.05,-0.99,0.43,-3.30,-3.91,-19.25,25.27,45.17,2
0.08,0.05,-0.99,0.00,-0.12,-6.10,-19.15,25.31,45.41,2
0.08,0.05,-1.01,1.16,6.16,-4.03,-19.45,24.80,44.70,2
0.06,0.05,-1.01,-4.09,5.25,-1.95,-20.21,24.71,45.34,2
0.06,0.04,-1.01,1.59,3.48,0.00,-20.32,24.56,45.62,2
0.05,0.05,-1.00,-1.89,-0.18,-2.26,-20.12,24.89,45.51,2
0.04,0.04,-1.00,-1.10,2.20,-2.32,-20.90,24.78,45.25,2
0.06,0.03,-1.00,-1.04,1.65,-5.68,-20.63,24.56,45.15,2
0.03,0.07,-1.01,1.34,3.66,-10.44,-20.68,24.40,45.23,2
0.02,0.05,-1.00,5.37,1.04,-12.08,-20.98,23.56,46.52,2
0.03,0.04,-0.98,5.13,5.37,-15.99,-22.05,22.30,44.42,2
0.02,0.05,-1.00,-1.89,-3.36,-9.95,-22.84,21.68,44.76,2
0.02,0.04,-0.99,-3.72,4.70,-9.22,-22.29,21.87,44.68,2
0.04,0.08,-1.02,-1.10,-0.55,-9.09,-22.55,21.59,45.01,2
0.02,0.07,-1.00,3.78,-0.55,-2.87,-22.95,21.66,44.82,2
0.01,0.05,-1.02,-1.77,-6.47,-2.20,-22.89,21.07,44.01,2
0.05,0.05,-1.03,4.82,0.92,-1.83,-21.73,21.01,44.37,2
0.03,0.10,-1.00,4.76,19.71,-25.76,-22.83,20.34,45.01,2
0.01,0.09,-1.00,-6.29,-12.21,-12.21,-23.13,19.38,44.79,2
0.05,0.11,-0.97,3.30,-3.66,-5.86,-22.47,19.47,44.49,2
0.05,0.10,-1.05,-1.89,-5.00,-18.80,-22.73,18.58,44.48,2
0.09,0.11,-0.97,0.67,-12.57,-26.67,-21.28,17.97,44.42,2
0.08,0.04,-0.96,6.41,-15.20,-24.54,-20.04,16.53,46.26,2
0.07,0.12,-0.99,21.12,15.44,-12.08,-19.65,16.16,46.57,2
0.11,0.10,-1.02,-2.44,-2.69,5.37,-20.91,14.03,47.00,2
0.12,0.12,-0.98,-24.48,-7.08,28.75,-21.09,15.80,47.05,2
0.07,0.06,-1.01,-4.03,-24.48,15.50,-19.52,18.42,47.80,2
0.10,0.07,-0.98,-11.29,22.28,2.44,-19.63,18.99,46.39,2
0.05,0.08,-1.03,1.46,16.05,8.18,-21.53,19.74,47.18,2
0.11,0.11,-1.01,-8.06,12.51,39.86,-22.67,21.59,45.68,2
-0.04,-0.07,-0.97,-23.38,-25.88,54.14,-21.02,25.74,47.00,2
0.04,0.06,-1.01,-3.54,9.16,47.73,-20.80,27.55,46.04,2
0.07,-0.01,-0.99,-6.71,-4.52,37.96,-20.34,28.31,45.48,2
0.03,0.00,-1.04,11.90,-5.25,45.35,-17.50,30.91,46.15,2
0.05,0.01,-1.01,-2.20,-1.65,35.83,-16.59,31.43,48.63,2
0.04,0.06,-1.03,-11.60,-5.25,30.58,-15.72,31.96,46.07,2
0.01,-0.02,-0.99,-13.79,-25.15,50.05,-12.77,33.54,47.20,2
0.02,-0.02,-1.01,5.62,-25.09,37.66,-8.85,33.23,47.97,2
0.07,-0.01,-1.02,-5.31,-5.37,33.08,-7.03,34.09,47.85,2
0.07,-0.04,-1.01,12.76,-16.97,40.89,-4.61,34.05,47.75,2
0.04,0.12,-1.05,-8.48,26.86,21.67,-3.30,33.42,47.75,2
0.13,-0.11,-1.06,-38.57,22.64,-7.20,-6.56,35.82,45.94,2
0.09,-0.07,-1.06,-5.92,0.79,15.99,-6.43,36.15,46.63,2
0.00,0.01,-0.98,19.53,-20.63,58.65,-5.53,36.54,47.36,2
0.07,-0.04,-1.08,5.31,16.54,45.78,-3.26,35.33,46.36,2
0.10,-0.06,-1.06,-1.83,-14.53,27.89,-1.39,34.64,46.08,2
0.09,0.05,-0.98,-7.63,-8.18,19.41,-0.18,34.51,45.67,2
0.14,-0.04,-1.01,8.61,-0.06,11.60,-0.05,34.18,44.07,2
0.10,-0.02,-1.00,-0.79,-2.75,10.56,-1.00,33.52,45.57,2
0.08,0.01,-1.00,-14.59,1.71,8.48,-3.26,33.54,44.29,2
0.07,0.01,-1.00,-9.77,11.23,7.81,-4.04,33.52,43.76,2
0.06,-0.08,-1.00,5.19,18.98,6.10,-6.88,35.01,45.69,2
0.10,-0.06,-1.00,-18.13,17.76,14.71,-10.53,36.79,47.06,2
-0.04,0.08,-0.96,0.00,17.94,4.03,-14.93,40.69,47.88,2
-0.08,-0.01,-1.07,18.49,-3.48,8.18,-16.55,42.32,47.86,2
-0.06,0.14,-1.02,32.35,-18.13,11.60,-17.61,44.87,50.48,2
-0.07,0.07,-0.98,19.65,1.04,29.11,-14.66,44.13,52.44,2
0.05,0.19,-0.98,19.90,5.68,27.71,-13.07,43.29,52.27,2
0.01,0.12,-0.94,-1.59,1.28,31.74,-11.50,41.86,50.74,2
0.08,0.14,-1.01,-2.75,2.20,24.54,-10.23,42.74,49.89,2
-0.03,0.17,-0.98,15.50,0.61,19.84,-7.93,42.85,48.47,2
0.03,0.21,-0.99,9.64,-3.48,12.21,-5.43,41.14,47.29,2
0.00,0.17,-1.00,14.34,-19.78,22.16,-4.25,40.53,47.50,2
0.00,0.11,-1.00,-12.45,5.25,20.63,-2.06,39.55,47.63,2
-0.02,0.07,-0.97,-22.09,19.29,7.45,-0.28,39.76,47.02,2
-0.02,0.13,-1.03,3.30,11.17,8.24,-0.24,40.93,46.01,2
0.01,0.12,-1.05,-2.93,6.77,-1.46,-0.68,39.37,45.20,2
-0.03,0.09,-0.99,26.43,17.03,46.45,-0.29,39.36,45.84,2
0.00,0.16,-1.01,9.46,-7.87,39.98,0.89,38.54,46.12,2
-0.04,0.12,-0.95,2.44,-34.73,51.39,4.63,38.28,46.14,2
-0.09,0.11,-1.06,-10.80,19.71,31.31,6.20,38.53,47.22,2
-0.00,0.04,-1.02,-59.57,-18.13,20.14,6.96,41.11,45.78,2
0.01,0.05,-0.99,9.52,-7.69,43.64,9.57,44.14,43.26,2
-0.02,0.03,-1.07,-1.71,6.04,14.10,10.05,45.06,43.98,2
-0.03,0.02,-0.97,-9.95,13.67,23.68,9.19,45.59,45.34,2
-0.08,-0.07,-1.07,-7.32,22.34,25.09,8.25,48.47,48.00,2
-0.19,-0.10,-0.97,-4.03,18.68,32.84,6.87,47.09,51.50,2
-0.17,-0.08,-0.94,4.88,1.59,28.75,5.99,46.30,50.73,2
-0.12,-0.06,-0.97,-19.65,13.85,6.84,6.84,43.48,49.74,2
-0.20,-0.05,-0.94,-9.64,15.93,8.00,6.67,41.93,46.75,2
-0.17,-0.06,-0.98,-4.82,15.14,6.41,5.32,40.76,45.10,2
-0.22,-0.07,-1.02,-18.68,-28.14,33.33,5.66,40.09,45.89,2
-0.16,-0.09,-0.98,-3.48,-25.63,30.33,10.17,39.21,44.14,2
-0.12,-0.15,-0.98,-5.80,-13.79,30.64,13.89,37.18,42.63,2
-0.03,-0.18,-1.02,-3.91,-9.89,24.11,16.27,36.21,42.86,2
-0.10,-0.14,-0.99,6.96,15.93,18.74,16.65,35.41,42.50,2
-0.11,-0.18,-0.99,3.54,-11.60,10.38,16.80,32.93,42.77,2
-0.05,-0.16,-1.05,33.20,12.51,-18.43,17.35,31.09,44.69,2
-0.10,-0.05,-1.03,11.29,1.95,-18.19,17.50,28.89,45.26,2
-0.09,-0.03,-1.00,-7.14,18.01,5.25,16.83,28.76,44.85,2
-0.13,-0.03,-1.03,5.80,-11.60,30.21,16.60,29.36,45.07,2
-0.16,0.02,-1.00,37.72,-7.93,5.74,19.40,25.82,45.64,2
-0.15,0.03,-0.96,10.56,15.69,-20.81,18.81,23.27,46.18,2
-0.10,0.00,-1.02,-2.20,41.02,-45.29,16.37,24.48,46.50,2
-0.07,0.08,-1.05,11.90,17.76,-39.25,13.28,26.09,47.52,2
-0.11,0.04,-1.00,-36.44,-44.68,-11.90,13.34,25.13,47.57,2
0.00,0.00,-1.00,-14.28,-27.59,1.71,17.10,27.69,47.99,2
-0.07,-0.08,-1.01,-25.45,36.56,69.09,15.98,27.04,46.86,2
-0.08,-0.12,-1.05,-14.59,-15.93,54.57,14.48,26.42,48.25,2
-0.11,-0.12,-0.94,-1.95,-27.28,-25.45,18.08,26.62,47.56,2
0.10,-0.15,-1.05,16.36,-2.87,-29.42,16.89,27.32,48.49,2
-0.04,-0.16,-0.98,12.27,-2.99,-6.47,17.85,26.54,47.44,2
-0.05,-0.08,-1.02,-3.11,-20.94,-14.04,18.62,25.87,47.63,2
0.07,-0.08,-0.98,-19.71,-7.32,-99.79,18.65,29.15,47.34,2
-0.02,-0.05,-1.05,10.50,3.30,-88.01,16.82,33.14,46.11,2
-0.03,-0.02,-1.04,44.19,10.50,-83.98,14.72,34.24,48.03,2
0.06,0.05,-1.01,18.92,-38.70,-76.23,13.43,32.26,47.97,2
0.02,0.08,-0.95,-4.88,4.58,-41.56,12.62,32.32,49.00,2
-0.00,0.04,-1.02,-28.75,7.51,-13.98,11.01,35.46,48.39,2
-0.03,0.00,-0.97,-20.51,28.20,-17.15,9.68,37.23,47.01,2
-0.06,-0.04,-0.97,-27.47,3.54,-26.43,7.09,40.82,46.01,2
-0.02,-0.07,-1.02,-18.80,10.25,-43.82,5.82,44.98,45.80,2
-0.06,-0.09,-0.96,1.34,8.00,-29.60,4.13,47.16,45.56,2
-0.09,-0.07,-1.05,2.87,12.08,-36.19,2.65,48.52,45.90,2
-0.07,-0.08,-0.98,10.38,5.00,-31.92,-1.89,49.55,49.60,2
-0.11,-0.04,-1.02,13.92,6.16,-20.87,-4.91,49.28,50.55,2
-0.07,-0.01,-0.97,17.70,3.54,-4.46,-5.59,47.85,51.28,2
-0.09,0.01,-1.00,17.52,-17.82,13.55,-7.01,47.25,51.81,2
-0.13,0.02,-1.07,-10.56,-1.77,49.32,-1.42,48.73,50.20,2
-0.09,0.02,-1.03,8.24,-4.82,38.82,2.10,48.46,50.70,2
-0.03,0.01,-1.01,5.43,-5.62,38.02,3.93,47.11,49.30,2
-0.01,0.01,-0.99,0.55,-16.91,36.99,6.98,43.26,48.95,2
-0.05,-0.03,-0.98,-12.57,1.89,40.04,8.50,40.94,46.83,2
-0.01,-0.02,-1.02,-10.19,-2.99,41.50,9.62,40.88,45.78,2
-0.04,-0.06,-1.02,-6.41,12.27,23.44,10.39,40.47,45.46,2
-0.06,-0.04,-1.01,17.40,7.08,24.11,9.81,39.93,44.76,2
-0.03,-0.00,-0.99,31.62,-0.55,26.49,10.28,36.49,45.81,2
-0.05,0.05,-1.00,14.16,-8.54,26.49,11.44,32.70,46.23,2
-0.07,0.05,-1.02,2.93,-9.52,20.02,12.71,32.40,46.04,2
-0.05,0.02,-0.97,-13.55,-3.91,18.37,13.31,31.56,44.09,2
-0.10,0.04,-0.94,-5.07,3.85,18.37,11.89,32.73,44.91,2
-0.02,-0.04,-1.00,-1.83,0.85,14.40,11.71,32.29,45.65,2
-0.06,-0.04,-1.00,-1.34,-1.71,16.05,11.55,32.42,45.07,2
-0.03,-0.06,-0.99,-1.89,3.78,11.17,11.12,31.08,45.32,2
-0.05,0.01,-0.98,11.72,2.26,16.54,10.93,31.07,45.02,2
-0.09,0.04,-0.98,18.74,6.65,21.85,10.84,28.21,45.26,2
-0.14,0.06,-0.98,11.72,12.15,25.51,11.00,27.05,45.14,2
-0.06,-0.01,-1.03,-3.91,-2.75,20.94,8.83,24.32,46.09,2
-0.02,-0.08,-1.04,-27.28,1.65,23.50,9.13,23.91,45.30,2
-0.06,-0.10,-0.98,-18.19,-4.03,45.04,10.18,25.24,45.50,2
-0.10,-0.18,-1.02,-13.61,-17.82,46.88,9.62,25.51,44.87,2
-0.05,-0.11,-1.03,0.73,-25.15,35.10,12.16,24.73,43.91,2
0.01,-0.08,-0.97,30.09,-18.86,20.02,15.81,23.74,43.97,2
0.06,-0.08,-1.02,4.88,0.37,-8.85,16.47,21.35,45.32,2
0.02,-0.06,-1.00,-0.85,0.37,-8.97,16.92,21.37,46.20,2
0.02,-0.08,-1.00,-8.36,-7.02,-6.10,17.42,22.28,45.70,2
0.00,-0.09,-1.00,-16.30,-9.03,-9.09,19.06,23.63,44.81,2
0.03,-0.10,-1.00,-22.28,-3.60,-10.50,20.35,26.07,46.08,2
0.04,-0.09,-0.97,-20.26,0.43,-11.35,19.68,28.00,45.35,2
0.07,-0.05,-0.97,8.91,2.32,-7.81,19.58,28.88,44.91,2
0.08,-0.08,-0.97,8.06,-1.16,-8.48,18.92,28.96,45.29,2
0.07,-0.09,-1.00,17.70,0.06,-8.00,19.47,29.50,46.37,2
0.10,-0.07,-1.03,22.95,0.06,-8.30,19.46,27.51,45.06,2
0.12,-0.01,-1.04,16.91,-1.77,-7.87,19.57,25.96,46.15,2
0.10,0.03,-0.99,-6.65,3.85,-19.17,20.09,26.33,46.03,2
0.09,0.02,-0.97,7.63,7.26,-18.49,20.00,26.43,44.54,2
0.08,-0.01,-1.05,-2.93,4.27,-19.90,20.50,28.02,45.34,2
0.16,0.03,-1.02,7.93,-0.79,-14.59,20.51,28.91,43.32,2
0.12,0.03,-1.06,-14.04,6.23,-28.02,20.89,31.04,42.60,2
0.01,0.06,-1.00,40.95,2.69,-6.65,20.80,31.65,41.24,2
-0.14,0.09,-0.97,53.34,-0.55,-2.75,20.74,29.81,42.33,2
-0.11,0.06,-0.96,-1.71,-2.81,4.94,21.23,27.54,39.98,2
-0.07,0.05,-0.97,-38.09,18.19,5.62,20.65,29.60,39.07,2
-0.00,0.03,-1.02,1.46,14.77,6.16,19.79,30.81,39.04,2
-0.08,0.06,-1.00,2.75,32.65,1.28,19.35,30.26,41.75,2
-0.11,0.05,-1.01,6.16,41.02,-10.74,15.78,29.33,42.44,2
-0.26,0.06,-0.99,-8.67,10.74,4.52,14.60,30.09,42.80,2
-0.27,0.06,-0.98,-10.25,0.00,6.04,14.59,30.33,43.95,2
-0.21,0.09,-1.07,18.01,-15.75,13.61,13.76,31.62,42.75,2
-0.24,0.10,-1.02,11.96,-20.75,31.62,15.84,29.50,44.70,2
-0.21,0.12,-0.98,31.25,-6.23,30.58,15.92,26.40,45.03,2
-0.18,0.08,-0.98,-2.26,0.73,26.55,15.32,24.46,45.86,2
-0.18,0.07,-0.93,0.55,0.31,12.39,13.15,23.34,46.89,2
-0.11,0.06,-0.96,1.83,-4.76,6.35,9.94,21.52,48.35,2
-0.11,0.08,-1.03,1.28,0.85,19.84,9.09,19.42,47.12,2
-0.07,0.08,-0.99,-9.46,-0.67,23.25,8.52,17.74,45.79,2
-0.07,0.05,-0.99,-20.51,4.09,18.68,9.56,15.20,43.84,2
-0.13,0.02,-0.98,-26.12,-0.61,18.55,9.62,15.70,45.76,2
-0.10,-0.00,-1.03,-17.70,-0.79,24.41,8.78,16.88,47.13,2
-0.02,-0.01,-1.02,3.17,-5.74,6.29,8.33,16.30,45.79,2
0.00,-0.04,-1.07,-11.41,-2.44,0.49,7.12,16.39,45.21,2
0.00,-0.07,-1.00,-20.45,-28.14,3.17,7.90,18.70,43.68,2
0.11,-0.09,-1.06,-22.58,-26.12,5.19,10.85,20.21,43.99,2
0.10,-0.12,-1.03,-13.98,-16.54,2.26,11.32,20.43,43.75,2
0.06,-0.17,-0.98,7.51,0.49,2.56,12.98,20.70,42.57,2
0.03,-0.11,-0.95,22.34,-6.47,-0.06,14.94,19.08,44.74,2
0.01,-0.11,-0.99,11.11,2.69,-4.46,14.70,18.07,46.12,2
-0.03,-0.07,-1.02,-4.94,4.58,10.19,14.99,18.36,45.30,2
-0.06,-0.14,-0.99,-16.24,-2.01,19.90,15.23,19.31,46.58,2
0.02,-0.13,-0.94,-4.88,-3.05,10.74,15.25,20.72,44.95,2
0.01,-0.15,-0.99,-4.33,-9.46,-6.96,16.25,20.54,45.09,2
0.08,-0.17,-1.02,-1.10,2.26,-19.96,16.59,22.64,44.73,2
0.07,-0.14,-1.00,-2.93,-13.18,-9.77,17.59,22.86,45.46,2
0.08,-0.10,-1.00,15.93,-11.29,-5.49,19.43,22.99,44.59,2
0.10,-0.05,-0.98,-1.83,-13.73,-6.90,20.97,22.89,45.21,2
0.10,-0.08,-0.99,-22.16,-13.37,-10.50,23.27,24.56,43.05,2
0.17,-0.10,-0.97,16.91,-3.66,-20.14,24.74,26.86,43.55,2
0.15,-0.04,-0.91,31.68,2.93,-15.75,25.70,25.71,43.58,2
0.12,0.05,-1.02,18.31,1.53,7.75,26.17,24.38,44.76,2
-0.01,0.05,-0.93,-25.88,-4.76,37.05,27.08,24.00,44.59,2
-0.04,0.04,-1.06,32.78,38.39,24.17,27.20,21.58,44.27,2
0.03,-0.04,-1.01,34.42,47.61,4.70,26.31,17.44,47.55,2
-0.10,0.05,-0.95,-17.27,-1.10,-60.97,25.90,17.65,46.75,2
-0.04,-0.08,-1.03,-17.58,-36.44,-78.74,24.07,23.46,47.33,2
0.03,-0.05,-1.00,31.37,12.45,-81.97,24.66,27.54,44.84,2
0.01,-0.08,-0.99,-14.22,-7.45,-38.70,22.35,30.04,44.76,2
0.04,-0.02,-1.02,-25.51,-4.76,-73.67,21.17,32.42,43.23,2
0.00,-0.10,-1.03,-3.91,14.10,-37.48,17.36,37.51,42.99,2
-0.00,-0.11,-0.98,5.00,-15.50,78.25,17.91,36.40,42.58,2
-0.04,-0.08,-1.00,-16.24,13.06,70.80,20.18,33.95,41.67,2
-0.06,-0.16,-0.97,-12.51,13.79,42.42,21.08,32.50,41.42,2
0.05,-0.15,-1.02,-6.10,-5.07,50.17,22.24,31.45,42.05,2
0.05,-0.14,-0.96,2.93,-12.08,38.33,24.41,29.21,41.36,2
0.04,-0.10,-0.96,-3.97,-14.10,33.02,25.79,28.09,40.91,2
0.06,-0.06,-0.96,-5.80,-0.24,33.39,27.61,27.00,40.39,2
0.08,-0.18,-1.04,-0.85,18.07,35.40,27.80,26.89,39.93,2
0.04,-0.17,-1.03,35.10,-15.38,51.15,28.91,23.29,41.16,2
0.19,-0.17,-0.98,-24.29,-10.25,75.87,30.48,19.48,40.19,2
0.06,-0.02,-0.99,59.51,20.69,26.67,30.58,17.36,40.99,2
0.10,0.01,-1.01,-9.95,-5.80,45.84,29.25,12.27,40.89,2
0.03,-0.05,-1.07,24.90,12.33,40.83,28.87,10.00,40.95,2
-0.03,0.01,-0.81,12.27,-8.54,63.23,28.31,9.19,42.79,2
0.13,-0.02,-1.05,8.24,2.32,41.56,27.43,7.23,40.44,2
0.03,0.11,-0.98,7.57,-1.34,32.04,25.99,4.72,40.78,2
0.02,-0.05,-1.05,-10.50,20.14,53.22,25.16,3.76,42.92,2
0.05,0.11,-1.06,-2.99,30.09,48.28,23.45,3.38,42.35,2
0.06,0.08,-0.99,-2.08,18.07,69.76,21.34,2.20,43.48,2
-0.13,0.03,-1.08,-11.23,-25.27,85.75,19.56,-1.46,43.60,2
-0.00,-0.04,-1.06,-0.79,-27.83,80.08,18.77,-2.49,43.49,2
0.07,0.29,-0.94,-10.19,-33.45,85.27,19.06,-2.70,43.59,2
0.13,0.07,-1.02,2.44,12.51,73.91,19.67,-5.32,42.11,2
0.18,0.03,-1.14,11.41,-14.47,56.58,18.77,-8.70,43.46,2
0.22,0.09,-0.92,38.64,-49.26,44.31,21.40,-14.23,42.66,2
0.27,0.10,-0.95,-1.40,-14.89,5.62,22.31,-16.26,41.55,2
0.22,0.23,-0.89,-5.19,-21.42,26.43,23.03,-17.74,40.60,2
0.24,0.08,-1.00,-19.04,-6.04,-18.68,24.17,-17.74,39.93,2
0.22,0.13,-0.99,-12.94,14.83,-21.55,24.77,-14.84,41.60,2
0.24,0.06,-1.00,-6.04,24.84,17.33,23.78,-15.28,43.07,2
0.17,0.11,-0.93,-6.59,31.62,43.27,19.38,-14.33,44.95,2
0.11,0.08,-0.97,-7.08,9.03,4.27,15.09,-14.78,43.40,2
0.12,0.06,-0.99,-5.80,-6.90,-51.39,14.78,-13.00,43.21,2
0.09,0.06,-1.04,0.98,24.96,-56.82,14.67,-12.62,42.19,2
0.08,0.05,-1.07,14.10,7.93,-37.96,14.15,-10.91,42.19,2
0.06,0.06,-0.99,22.40,5.31,-44.25,14.49,-11.68,40.59,2
0.06,0.09,-0.98,1.53,8.48,-53.28,15.33,-10.69,40.39,2
0.02,0.11,-1.00,-8.97,5.00,-69.46,16.94,-10.28,40.78,2
0.05,0.12,-0.98,0.92,20.69,-63.23,18.55,-7.57,40.15,2
0.01,0.10,-1.02,-4.76,8.73,-62.32,20.70,-7.19,40.61,2
-0.04,0.15,-0.95,-23.80,-5.86,-110.53,22.95,-2.94,41.81,2
0.00,-0.10,-1.08,-12.70,20.75,-91.86,24.62,-0.09,41.69,2
-0.01,-0.02,-1.04,23.01,-18.86,-69.70,26.10,6.26,41.48,2
0.01,0.04,-0.97,1.65,29.24,-41.26,27.80,8.29,41.17,2
-0.00,0.02,-1.07,0.18,12.45,-16.85,27.27,10.46,42.60,2
-0.06,-0.01,-0.94,-11.60,-6.77,-40.22,27.44,10.24,42.10,2
-0.11,-0.10,-1.02,-0.67,13.06,-21.55,28.30,13.06,40.73,2
-0.06,0.05,-1.03,-12.51,8.42,-41.14,27.33,14.20,41.88,2
-0.11,-0.09,-0.99,-22.58,-0.37,-34.36,27.39,18.57,42.16,2
-0.02,-0.06,-1.01,-18.31,9.52,-79.77,26.81,21.64,41.75,2
-0.08,-0.01,-0.99,18.31,7.26,-37.48,25.87,26.16,42.86,2
-0.02,0.08,-0.97,25.45,-10.07,-15.81,24.93,26.37,44.41,2
-0.06,0.05,-1.02,5.86,-4.33,-10.50,25.70,27.44,43.82,2
-0.11,0.03,-0.97,-3.66,-1.59,-5.13,26.18,28.14,45.61,2
-0.05,0.04,-1.00,11.84,-9.83,-0.31,26.83,29.48,46.31,2
-0.01,0.04,-0.97,-8.18,7.87,-18.19,28.36,29.66,49.57,2
-0.06,0.04,-1.03,6.41,22.64,-53.28,28.43,35.27,54.00,2
-0.04,0.02,-1.06,-5.00,-13.06,-24.96,27.33,38.62,54.61,2
-0.11,-0.03,-1.03,-9.40,-10.01,-18.92,28.87,42.10,56.85,2
-0.04,-0.01,-0.97,-27.40,-7.26,-21.97,27.29,46.92,55.64,2
-0.04,-0.02,-1.00,-3.48,10.50,-41.14,23.79,52.95,56.21,2
-0.09,-0.07,-1.02,-5.55,-13.43,-58.11,20.30,56.37,57.53,2
-0.01,-0.01,-1.00,-4.76,6.10,-48.16,9.94,57.86,59.03,2
-0.06,-0.01,-1.02,11.54,11.29,-28.44,2.48,53.17,57.23,2
0.00,-0.11,-1.09,-8.85,27.83,-27.34,-2.42,46.64,53.52,2
-0.21,-0.06,-1.11,23.93,21.24,-48.89,-2.66,45.85,50.35,2
-0.09,0.01,-0.95,13.92,-13.24,-39.00,-3.20,39.48,48.10,2
-0.03,0.05,-1.06,6.23,14.83,-47.73,-2.82,37.87,47.71,2
-0.15,0.07,-0.96,-16.78,8.42,-38.27,-3.61,38.01,48.47,2
-0.20,0.01,-1.01,-2.38,-8.30,-26.49,-4.14,37.34,46.84,2
-0.11,-0.02,-1.12,-22.34,-10.25,-38.39,-3.15,37.56,46.24,2
-0.11,-0.03,-0.98,10.68,-21.61,-63.11,-1.98,36.72,45.34,2
-0.01,0.04,-0.97,-3.91,-3.72,-40.16,-1.22,36.98,45.70,2
-0.04,0.10,-1.00,20.14,28.63,-31.31,-3.69,36.13,45.73,2
-0.11,0.06,-1.02,0.00,-5.80,-27.95,-5.65,35.60,46.11,2
-0.13,0.12,-1.00,1.34,-5.43,-14.77,-6.09,34.57,46.97,2
-0.14,0.05,-1.01,-5.00,-4.03,-24.66,-6.18,34.57,46.81,2
-0.12,0.00,-1.04,-1.71,-8.54,-55.42,-6.67,33.89,49.26,2
-0.08,0.19,-1.12,-36.13,-2.08,-12.94,-7.64,32.06,47.20,2
0.04,0.15,-0.95,-14.83,6.71,-37.96,-9.16,32.78,47.61,2
0.09,0.14,-0.91,-5.55,10.93,-48.22,-9.99,33.18,48.03,2
-0.09,-0.01,-1.01,15.20,1.28,-25.39,-10.49,34.63,46.41,2
-0.08,0.13,-1.02,13.98,-16.11,-23.50,-11.34,31.53,46.84,2
-0.01,0.13,-0.98,6.84,-5.68,-27.65,-11.78,29.09,48.06,2
0.05,0.15,-0.92,0.31,-8.54,-27.47,-11.15,28.76,48.17,2
0.06,0.18,-0.99,-11.17,1.53,1.04,-11.24,29.53,48.51,2
-0.01,0.08,-1.00,-2.20,-3.23,-11.90,-11.72,29.90,48.19,2
-0.01,0.09,-1.00,0.55,-2.81,-24.66,-11.62,30.05,46.69,2
0.01,0.11,-1.02,-11.35,-8.54,-36.44,-12.57,29.85,49.54,2
0.06,0.10,-1.04,-12.94,11.78,-29.17,-12.61,30.21,48.97,2
0.06,0.04,-0.97,-7.08,-3.05,-11.78,-14.23,31.04,48.34,2
0.05,0.12,-1.00,-8.12,2.14,-15.08,-15.22,31.96,48.21,2
0.04,0.05,-1.03,-4.76,3.48,-28.08,-15.21,31.13,48.07,2
0.02,0.02,-0.99,-5.13,21.79,-42.60,-17.27,31.02,47.57,2
0.01,-0.02,-0.98,-13.55,14.16,-32.04,-20.09,30.35,46.63,2
-0.03,0.01,-1.01,-19.10,0.85,-11.78,-20.72,30.59,45.40,2
-0.02,0.05,-1.02,3.36,-1.34,5.86,-20.97,30.76,46.15,2
0.01,-0.06,-1.00,-1.28,-17.70,0.18,-21.15,31.20,46.01,2
0.01,-0.03,-1.01,11.96,13.24,39.25,-18.76,31.32,45.50,2
0.00,0.04,-0.95,-10.62,14.10,48.89,-18.84,33.40,44.42,2
-0.00,-0.01,-1.01,6.65,14.40,47.91,-19.38,33.68,45.28,2
-0.07,-0.01,-1.01,-0.12,18.19,29.42,-19.36,34.77,43.70,2
-0.06,-0.03,-0.99,5.19,6.10,34.42,-19.03,37.32,44.70,2
-0.14,-0.06,-1.01,4.33,-0.24,26.37,-16.74,37.65,45.06,2
-0.15,-0.06,-0.99,3.97,6.90,5.49,-16.48,37.95,44.04,2
-0.15,0.03,-1.03,45.65,-8.79,-69.64,-17.21,37.12,45.67,2
-0.15,0.02,-0.99,-2.99,-15.87,-46.20,-18.36,32.60,45.25,2
-0.09,0.06,-0.99,-27.47,-8.97,-2.44,-17.77,32.97,46.46,2
-0.05,0.07,-1.01,-7.81,-1.46,-0.67,-18.07,33.95,45.90,2
-0.05,-0.01,-0.98,-16.11,-1.77,-16.17,-18.18,34.72,45.53,2
-0.11,-0.04,-1.00,-5.68,15.99,-33.45,-19.98,34.90,45.04,2
-0.08,-0.04,-0.99,11.54,14.65,-24.78,-22.69,33.80,44.03,2
-0.06,-0.03,-0.99,2.69,-14.04,-1.83,-23.27,33.39,45.96,2
-0.03,-0.01,-1.03,-5.74,-11.72,-1.46,-21.81,33.70,44.07,2
-0.03,-0.02,-1.05,-2.38,-5.92,0.37,-20.61,34.31,46.79,2
-0.05,-0.02,-1.03,2.38,-5.31,24.23,-20.07,35.05,46.67,2
-0.04,-0.05,-1.03,-6.77,-7.08,22.52,-19.02,35.07,45.96,2
-0.02,-0.05,-0.99,-0.55,2.08,31.86,-18.86,37.10,46.41,2
-0.02,-0.05,-1.04,4.15,-10.44,19.84,-17.10,37.52,46.03,2
-0.01,-0.03,-0.97,0.49,-3.36,13.73,-16.03,37.32,46.46,2
-0.01,-0.02,-1.00,-4.03,-0.49,7.14,-15.71,37.55,47.27,2
-0.01,-0.01,-1.02,8.30,-4.09,13.55,-15.26,37.93,46.55,2
0.04,-0.03,-1.00,-3.11,-27.95,12.51,-13.83,37.23,46.56,2
0.04,-0.01,-0.92,16.72,0.37,5.98,-12.56,37.46,47.03,2
0.06,0.06,-1.00,7.75,-3.48,20.14,-11.44,36.12,46.61,2
0.06,0.05,-1.05,-2.69,-2.32,25.33,-10.78,36.11,47.90,2
0.04,0.03,-1.00,11.66,3.05,12.51,-10.08,36.07,48.22,2
0.06,0.09,-0.99,2.56,13.18,16.66,-9.89,36.13,48.38,2
0.04,0.04,-1.00,8.97,-7.75,3.85,-9.79,35.05,48.55,2
0.06,0.07,-0.99,-3.48,7.02,1.40,-10.17,35.61,48.47,2
0.04,0.06,-1.01,-0.85,4.33,2.75,-10.52,35.50,47.46,2
-0.00,0.07,-1.01,-9.58,2.99,17.15,-10.16,35.38,47.16,2
0.00,0.03,-0.96,-8.18,2.26,15.26,-10.10,36.08,47.92,2
-0.03,0.02,-1.09,4.58,-2.32,21.06,-9.14,36.69,47.11,2
-0.01,0.06,-1.00,8.61,-6.41,16.24,-8.37,36.74,48.88,2
0.00,0.02,-1.03,-2.81,6.41,9.89,-8.22,35.94,47.38,2
0.00,0.10,-0.99,-0.49,-4.03,5.92,-7.54,36.07,47.45,2
-0.01,0.04,-1.01,-16.17,5.86,25.76,-7.53,37.10,47.23,2
-0.00,0.05,-0.99,8.24,-7.81,17.40,-6.21,36.91,47.44,2
-0.02,0.02,-1.02,-8.73,3.23,8.73,-5.93,36.98,47.41,2
-0.04,0.04,-0.99,3.36,-2.32,11.84,-5.46,37.16,47.91,2
-0.03,0.01,-1.04,-12.70,13.31,15.32,-5.54,37.59,47.86,2
-0.05,0.03,-1.05,-18.86,15.99,12.08,-5.69,39.07,48.00,2
-0.07,0.06,-1.02,1.04,8.00,1.65,-5.90,39.88,48.01,2
-0.06,0.02,-0.99,15.08,-5.80,0.06,-7.08,38.28,48.23,2
-0.08,0.01,-1.00,-24.41,-2.75,3.78,-5.93,38.01,48.18,2
-0.09,0.01,-0.99,-10.19,-6.96,18.37,-4.98,39.83,47.83,2
-0.01,-0.01,-0.97,7.02,-9.52,31.86,-3.98,40.36,46.50,2
0.03,-0.06,-0.97,-22.71,-28.32,18.92,-2.39,40.54,47.90,2
0.01,-0.05,-0.97,-25.94,-14.34,17.58,0.83,43.79,44.97,2
0.05,-0.06,-1.04,6.96,5.25,15.87,2.44,44.82,44.45,2
0.03,-0.09,-1.01,6.96,2.99,8.97,2.11,43.71,45.02,2
-0.01,-0.11,-1.01,1.65,-3.60,17.52,3.16,42.15,45.87,2
0.04,-0.03,-1.00,13.49,-8.18,26.43,3.72,42.04,44.73,2
0.02,-0.06,-1.01,-3.23,-14.34,11.78,4.25,41.00,46.13,2
0.09,-0.02,-1.03,13.79,3.42,26.49,5.64,41.06,45.54,2
0.07,0.04,-0.98,21.79,3.17,58.96,7.59,38.39,47.39,2
0.01,-0.01,-1.06,19.35,17.88,17.58,7.58,35.96,47.40,2
0.02,0.06,-1.01,-6.96,8.42,-3.66,7.98,35.49,47.99,2
0.11,0.00,-0.97,-34.85,-17.46,-20.26,9.02,36.96,47.12,2
0.12,-0.04,-1.06,-26.25,10.56,-8.79,9.18,41.20,44.49,2
0.07,-0.05,-1.01,2.20,1.53,53.28,10.36,42.32,43.93,2
0.02,0.02,-1.01,11.84,16.11,55.79,11.90,40.86,44.65,2
0.07,-0.07,-1.00,2.93,-14.77,5.07,12.78,38.79,43.58,2
0.07,-0.04,-0.98,-3.11,-3.72,-11.11,13.27,38.68,44.71,2
0.06,-0.01,-1.00,-8.48,12.15,4.46,12.59,39.40,44.13,2
0.08,-0.09,-1.03,-6.96,10.62,30.33,12.70,39.01,43.38,2
0.03,-0.05,-1.01,8.30,6.96,17.27,13.37,39.28,44.37,2
0.03,-0.00,-1.00,7.57,-9.22,5.19,13.79,38.28,43.23,2
0.14,-0.00,-1.00,28.26,-15.44,47.97,15.26,35.78,45.59,2
0.04,0.01,-1.02,-2.69,6.90,59.45,16.59,33.20,45.04,2
0.04,-0.02,-0.99,-25.33,2.08,16.60,17.53,31.65,45.34,2
0.05,0.03,-1.00,-1.65,0.73,14.47,17.19,32.68,46.23,2
0.04,-0.05,-0.99,-15.08,-3.48,22.71,18.30,32.62,45.61,2
0.07,-0.03,-0.99,-34.18,-3.30,40.83,19.35,33.18,44.82,2
0.08,-0.08,-1.01,-11.78,-7.26,29.05,20.87,33.86,42.53,2
0.07,-0.06,-0.99,6.29,0.79,15.26,22.19,33.58,41.87,2
0.13,-0.04,-1.02,37.90,-5.62,43.21,23.35,30.07,43.99,2
0.09,0.06,-1.00,36.25,-2.62,39.12,24.24,27.17,42.43,2
0.07,0.02,-0.98,-0.98,2.93,4.94,24.57,23.94,43.49,2
0.09,0.05,-1.01,-9.77,1.71,2.87,24.84,24.54,42.76,2
0.10,0.04,-1.00,-5.86,2.75,-3.36,23.90,25.66,42.69,2
0.09,0.02,-1.02,-2.38,1.71,2.99,24.46,25.52,44.52,2
0.07,0.01,-0.99,-13.18,5.43,25.76,24.06,25.54,43.91,2
0.06,-0.01,-1.00,-11.72,-3.78,40.89,23.93,25.16,43.42,2
0.08,-0.02,-1.03,-8.61,-5.37,10.44,25.29,24.98,43.99,2
0.06,-0.04,-1.00,-4.70,-1.40,-30.27,25.60,25.32,41.55,2
0.09,-0.04,-1.00,-5.86,-2.01,-69.76,24.78,26.88,43.47,2
0.10,-0.05,-0.98,-3.97,-0.37,-16.60,22.90,31.01,43.37,2
0.11,-0.05,-1.01,3.11,1.65,54.81,23.56,29.42,42.86,2
0.07,-0.04,-1.02,-2.08,4.52,67.44,24.84,28.22,43.86,2
0.06,-0.07,-1.02,7.57,-8.54,31.07,24.41,25.20,43.46,2
0.09,-0.00,-0.95,23.93,-6.53,54.81,26.46,21.66,42.64,2
0.11,-0.02,-1.01,0.98,8.67,69.40,27.12,17.49,43.29,2
0.09,-0.01,-1.01,-23.80,-1.16,21.67,26.98,17.22,43.58,2
0.07,-0.03,-1.02,-12.45,-4.70,11.84,26.77,18.25,43.43,2
0.08,-0.04,-0.99,8.85,-3.54,12.45,27.47,17.75,42.98,2
0.09,-0.04,-1.00,-5.00,2.87,11.60,27.49,16.60,43.60,2
0.11,-0.04,-1.01,-6.59,-0.98,19.35,27.22,16.48,42.63,2
0.08,-0.06,-1.03,-5.49,3.91,6.35,27.20,15.95,42.36,2
0.07,-0.04,-0.99,12.51,8.30,10.31,27.26,15.54,44.25,2
0.07,-0.04,-1.00,-1.53,3.97,2.50,27.01,14.37,44.01,2
0.06,-0.05,-1.00,-6.53,-0.43,-5.86,26.18,14.73,43.53,2
0.06,-0.06,-1.00,-2.62,2.26,0.67,26.01,15.88,42.83,2
0.07,-0.06,-1.00,-6.16,0.24,-2.08,25.93,16.21,44.08,2
0.06,-0.07,-1.01,3.85,2.81,1.53,25.92,16.89,44.59,2
0.04,-0.05,-1.00,1.46,0.85,-5.74,25.34,15.70,44.14,2
0.04,-0.04,-0.98,7.08,-3.17,-11.84,26.31,16.19,43.16,2
0.06,-0.05,-1.01,-0.12,-1.53,-15.32,26.31,16.65,42.82,2
0.06,-0.03,-1.03,1.10,3.11,-16.30,25.94,17.24,42.42,2
0.03,-0.04,-1.00,-3.05,4.39,-9.28,25.50,16.81,43.49,2
0.04,-0.03,-1.01,5.19,-2.38,-1.95,25.20,17.52,45.83,2
0.06,-0.03,-1.01,-6.35,-4.03,-5.19,25.48,18.21,44.59,2
0.07,-0.03,-1.00,8.18,-1.40,0.98,26.20,18.48,44.19,2
0.08,-0.02,-1.00,6.29,4.09,12.57,26.92,17.40,43.90,2
0.03,-0.02,-0.99,13.18,19.59,25.27,25.46,15.77,43.12,2
0.02,0.01,-1.00,3.17,-3.30,15.08,24.99,14.04,43.95,2
0.02,0.02,-0.99,-3.66,-6.29,7.51,25.38,13.92,44.36,2
0.03,0.02,-1.03,2.26,3.91,12.21,25.42,13.78,43.29,2
0.05,0.03,-1.01,-9.28,0.24,38.94,25.20,12.82,43.35,2
0.02,-0.02,-1.00,-5.86,-12.39,17.58,25.23,11.16,43.85,2
0.08,0.04,-1.01,22.22,-6.65,18.62,25.96,11.10,43.23,2
0.06,0.05,-0.97,34.06,12.45,5.74,26.50,7.62,44.52,2
0.10,0.11,-1.07,-7.69,-7.63,16.97,25.72,6.59,44.12,2
0.07,-0.03,-0.98,-21.36,6.10,1.95,25.02,6.67,44.13,2
0.05,0.02,-1.01,0.31,16.36,23.32,24.66,7.17,43.74,2
0.00,0.06,-1.00,21.30,7.63,7.39,22.52,6.09,43.98,2
-0.00,0.09,-1.01,-4.64,1.40,5.31,22.33,5.43,43.85,2
-0.02,0.06,-1.01,-0.98,6.23,13.31,21.44,5.09,44.64,2
-0.04,0.03,-0.97,5.25,3.78,24.66,21.02,4.55,44.70,2
0.05,0.09,-0.99,-29.05,-36.93,-0.85,21.83,4.33,45.00,2
-0.03,0.01,-1.02,3.42,-3.05,32.65,23.60,3.75,42.76,2
0.11,-0.02,-1.07,12.39,-5.19,26.61,24.06,6.03,42.74,2
0.05,0.03,-1.00,3.97,-4.70,34.91,22.91,1.28,42.48,2
0.03,0.06,-1.01,8.54,7.32,31.43,22.45,-0.67,43.42,2
0.01,0.07,-0.95,-19.78,14.71,23.38,20.18,-1.53,42.69,2
-0.04,-0.03,-1.05,-22.09,12.70,51.88,18.57,-0.98,45.20,2
-0.05,0.04,-0.98,22.77,-2.93,-2.93,16.05,-1.73,45.64,2
0.00,-0.01,-1.00,10.44,14.59,34.42,16.28,-2.37,44.32,2
-0.03,0.11,-0.97,18.37,-9.52,12.63,14.05,-5.85,43.36,2
-0.04,0.10,-0.97,7.63,-10.68,21.30,15.03,-6.04,43.35,2
-0.07,0.07,-1.02,4.03,-3.78,15.20,14.45,-7.64,44.21,2
-0.04,0.10,-1.03,-6.23,-8.06,6.71,13.28,-6.79,43.32,2
-0.02,0.08,-1.01,-25.88,1.59,5.49,13.31,-5.62,44.53,2
-0.03,0.03,-0.98,-35.52,-12.27,-8.30,14.06,-5.38,44.51,2
0.02,-0.03,-1.03,4.58,-19.65,-12.33,14.43,-2.48,45.25,2
0.07,0.01,-1.01,-3.91,2.93,0.67,16.65,-3.15,44.26,2
0.03,-0.01,-1.01,0.55,9.28,6.41,15.47,-3.23,43.95,2
-0.01,0.01,-0.99,10.44,17.21,30.70,14.93,-3.00,44.95,2
-0.03,0.10,-1.07,20.08,2.14,17.70,10.46,-6.07,44.35,2
-0.04,0.08,-1.02,-13.55,-11.35,18.13,9.88,-7.42,43.98,2
-0.04,0.03,-1.00,-1.53,-2.01,20.14,9.95,-7.68,44.35,2
-0.02,0.04,-1.01,-10.19,1.10,11.47,9.27,-6.79,44.65,2
-0.02,0.03,-0.98,5.07,13.61,6.84,9.30,-6.26,44.85,2
-0.02,0.04,-0.99,-1.46,-6.53,10.99,8.61,-7.82,44.29,2
-0.12,0.10,-1.08,5.74,6.10,-0.43,8.35,-8.41,43.86,2
-0.04,0.01,-1.00,-29.60,3.36,-9.52,7.52,-5.81,46.23,2
-0.08,-0.03,-0.96,-27.95,10.74,3.36,7.45,-4.19,45.70,2
-0.05,-0.04,-1.08,34.36,-17.58,-1.65,8.56,-4.14,45.70,2
-0.02,-0.04,-0.92,-15.38,-19.90,17.82,10.05,-5.14,47.14,2
-0.00,-0.01,-0.92,16.72,-6.77,25.02,9.09,-3.48,46.61,2
-0.02,-0.05,-0.99,-2.87,-1.59,15.50,8.30,-3.87,46.34,2
0.01,-0.04,-1.03,23.32,-0.98,8.79,8.90,-5.18,45.84,2
0.03,-0.04,-0.98,-40.22,-7.45,-7.57,9.25,-5.83,45.95,2
0.00,-0.12,-1.01,-0.37,3.97,4.15,8.41,-3.63,47.38,2
0.01,-0.01,-0.98,39.18,9.22,17.64,9.16,-3.44,47.34,2
0.01,0.00,-0.98,9.09,-12.45,-9.64,8.00,-5.44,45.61,2
0.03,0.01,-0.99,2.32,7.93,-21.12,8.45,-6.04,46.36,2
0.02,0.00,-1.01,1.71,-6.04,-12.21,9.85,-6.14,45.32,2
0.01,-0.01,-1.00,0.00,-2.32,4.27,10.16,-5.98,44.90,2
0.02,0.03,-1.04,-4.46,-13.18,5.86,10.61,-6.57,45.75,2
0.07,0.02,-1.00,-3.11,4.88,-6.53,10.44,-6.40,45.06,2
0.04,-0.00,-1.02,0.37,13.12,4.64,10.45,-6.12,44.80,2
0.00,-0.07,-1.00,-14.65,4.88,-0.67,9.48,-5.69,46.12,2
0.23,-0.65,-1.12,0.73,-19.65,15.08,9.88,-4.90,46.94,2
0.01,-0.00,-1.03,7.57,-7.75,15.08,10.00,-4.90,46.18,2
0.03,-0.03,-0.97,4.09,13.24,20.45,9.45,-5.37,44.78,2
-0.06,-0.02,-0.99,10.01,14.53,23.99,7.53,-6.37,45.86,2
-0.01,0.01,-1.05,2.56,-5.62,19.23,4.74,-7.51,44.96,2
0.04,0.02,-1.03,-2.93,-2.56,12.70,5.07,-7.03,45.20,2
0.06,-0.01,-1.00,-5.13,-5.00,13.55,4.80,-6.43,45.48,2
0.06,0.04,-1.01,3.30,2.81,13.24,5.00,-7.12,45.62,2
0.02,-0.01,-0.98,-8.24,-10.44,6.59,3.87,-6.75,45.31,2
0.02,-0.02,-1.00,-0.12,-3.36,3.66,4.28,-6.97,45.09,2
0.05,0.02,-1.01,15.20,-18.49,1.04,4.88,-6.92,45.63,2
0.11,0.05,-0.96,34.24,-46.69,4.82,7.36,-9.09,42.80,2
0.21,0.11,-1.01,-2.56,-3.17,3.48,9.67,-10.31,41.25,2
0.15,0.08,-1.00,-9.22,6.96,9.83,8.89,-10.05,42.71,2
0.13,0.05,-0.97,5.55,-3.54,7.87,8.29,-10.29,41.82,2
0.13,0.10,-1.02,21.18,6.71,16.36,7.19,-10.73,41.35,2
0.08,0.10,-0.98,6.96,3.48,18.13,5.68,-13.05,40.76,2
0.15,0.10,-1.00,-9.95,3.72,34.42,4.70,-12.59,41.52,2
0.10,0.08,-0.97,-1.28,-0.18,30.09,2.77,-11.30,42.24,2
0.12,0.08,-1.04,-12.02,-7.26,35.52,0.81,-10.40,44.26,2
0.14,0.09,-1.05,-8.48,-7.51,28.56,0.45,-9.57,44.93,2
0.16,0.07,-1.02,1.65,-15.56,13.98,0.39,-9.13,43.41,2
0.13,0.01,-0.95,-6.96,3.42,24.84,0.50,-8.19,44.53,2
0.07,0.03,-0.98,-17.15,-3.66,40.95,-1.82,-6.79,44.73,2
0.12,0.04,-0.98,7.45,5.62,45.29,-4.11,-6.51,45.18,2
0.09,0.01,-0.95,-13.12,7.26,68.54,-5.47,-5.03,44.97,2
0.05,0.09,-1.01,-16.24,11.23,54.50,-8.51,-1.54,45.80,2
0.08,0.11,-1.00,9.64,-7.63,15.38,-8.75,0.05,47.20,2
0.04,0.13,-0.99,9.28,-3.23,8.36,-9.34,1.15,48.56,2
0.08,0.14,-1.01,-3.85,1.89,16.78,-8.86,0.82,47.17,2
0.05,0.13,-1.00,-4.09,3.97,31.86,-9.24,2.95,47.53,2
0.02,0.10,-1.00,1.83,3.66,34.36,-10.11,4.04,47.33,2
0.04,0.11,-0.99,1.89,3.85,2.69,-10.97,3.55,47.51,2
0.02,0.11,-1.02,-8.73,18.25,0.00,-11.88,4.15,48.52,2
0.03,0.09,-1.00,-2.14,-7.39,16.05,-12.66,4.60,48.85,2
0.02,0.08,-1.00,-2.44,-3.17,35.40,-13.11,6.05,47.95,2
0.00,0.07,-1.01,5.86,-4.76,5.37,-13.77,9.12,49.28,2
-0.01,0.05,-0.99,13.98,-0.61,-45.72,-13.34,4.85,50.17,2
0.00,0.09,-0.99,17.82,-13.31,-68.12,-11.76,2.40,49.74,2
0.13,0.15,-0.96,17.21,-27.47,-69.09,-7.92,-1.32,47.89,2
0.14,0.16,-1.01,4.70,17.46,-54.50,-6.24,-2.94,48.74,2
0.10,0.13,-1.00,-1.34,13.98,-60.12,-5.83,-3.76,48.71,2
0.15,0.12,-1.00,0.92,-0.06,-43.76,-4.82,-4.16,48.07,2
0.10,0.13,-1.01,-2.81,-5.25,-27.83,-2.66,-4.80,47.28,2
0.05,0.12,-1.00,8.18,-1.83,-15.20,-2.48,-5.47,48.11,2
0.07,0.09,-0.95,2.26,-11.17,-22.58,-1.55,-6.57,47.22,2
0.16,0.09,-0.97,-18.19,-1.04,-38.64,1.55,-6.62,47.02,2
0.18,0.03,-1.00,-17.70,-2.62,-51.27,3.72,-5.68,46.86,2
0.16,0.00,-0.99,-16.78,-9.89,-6.77,4.90,-4.09,45.70,2
0.10,0.03,-0.99,4.33,-9.77,15.14,5.44,-3.66,47.38,2
0.06,0.08,-0.99,26.55,0.73,14.47,4.63,-4.98,46.22,2
0.15,0.05,-0.94,8.97,-2.32,-5.43,4.87,-6.92,44.84,2
0.16,0.01,-1.01,-10.13,6.47,-16.97,5.69,-7.18,45.20,2
0.21,0.00,-1.01,-9.77,10.44,8.67,6.21,-5.80,45.02,2
0.24,0.06,-1.00,5.80,-0.49,6.23,5.55,-5.29,45.02,2
0.16,0.10,-1.02,1.95,-4.82,-2.14,6.35,-5.64,42.75,2
0.20,0.02,-0.96,-5.49,-8.00,-7.87,6.82,-5.80,43.90,2
0.27,0.03,-1.01,-8.97,10.38,4.76,7.80,-4.35,44.07,2
0.20,0.05,-0.96,0.12,5.62,22.71,7.51,-4.41,44.64,2
0.15,0.11,-0.97,16.66,-4.15,3.54,8.23,-5.60,44.45,2
0.30,0.05,-0.97,-2.44,-10.50,-20.57,8.98,-6.32,43.55,2
0.26,0.06,-0.99,0.18,-9.28,-23.99,11.30,-6.65,42.72,2
0.26,0.05,-0.99,-0.06,-5.74,-23.80,12.56,-6.19,41.89,2
0.28,0.01,-0.96,4.33,6.35,-7.87,13.43,-6.91,42.42,2
0.24,0.02,-0.99,-4.88,14.95,6.41,12.73,-6.82,41.27,2
0.11,0.02,-1.00,6.29,16.24,8.67,11.06,-6.30,42.63,2
0.14,0.03,-0.99,6.65,5.55,2.93,8.23,-7.98,42.94,2
0.19,0.07,-1.00,14.22,2.20,-1.34,8.24,-8.24,42.29,2
0.19,0.11,-0.99,2.87,-0.37,0.67,7.60,-8.83,41.66,2
0.13,0.12,-1.00,15.01,3.97,8.24,6.92,-9.46,41.50,2
0.17,0.11,-0.99,11.41,-5.62,16.97,7.21,-11.63,41.19,2
0.18,0.14,-0.99,5.07,2.38,23.25,5.55,-12.30,40.71,2
0.12,0.19,-0.99,10.13,-4.70,19.17,4.71,-12.92,41.16,2
0.15,0.18,-0.95,0.79,-1.65,10.50,4.27,-14.12,40.19,2
0.20,0.18,-0.96,-3.05,7.08,10.50,2.59,-13.61,40.38,2
0.15,0.20,-0.99,-13.24,1.71,2.50,1.89,-13.11,41.86,2
0.10,0.16,-0.99,-8.85,1.46,18.86,1.15,-12.74,41.19,2
0.07,0.14,-0.97,12.27,12.33,33.81,-1.31,-13.16,40.98,2
0.06,0.15,-0.98,7.08,8.54,23.13,-4.38,-13.73,40.22,2
0.08,0.16,-0.99,-14.77,2.87,9.89,-4.71,-13.34,43.09,2
0.04,0.14,-0.99,-34.18,3.11,19.59,-5.68,-11.73,42.86,2
0.02,0.12,-1.01,-7.57,-1.89,13.85,-6.82,-9.42,45.63,2
0.10,0.06,-0.98,0.67,-1.46,18.31,-7.62,-8.39,47.35,2
0.05,0.04,-1.00,-6.53,-13.00,5.00,-8.58,-7.12,46.59,2
0.01,0.09,-1.04,-16.24,-14.77,-29.42,-6.69,-5.82,48.85,2
0.06,0.14,-1.04,9.40,-4.52,-29.91,-2.98,-6.08,49.68,2
0.10,0.07,-0.94,-2.87,10.01,-3.91,-1.57,-6.14,50.21,2
0.02,0.25,-1.07,10.31,-6.16,-6.65,-1.82,-5.92,49.16,2
0.00,0.19,-0.95,4.03,1.77,4.03,-0.96,-7.18,48.34,2
0.07,0.09,-0.99,-26.37,-1.16,-7.63,-1.90,-7.80,48.22,2
0.14,-0.04,-1.06,-26.49,1.71,-3.91,-1.93,-4.49,50.39,2
0.13,-0.07,-1.03,14.71,-3.11,-22.46,-1.34,-5.16,48.74,2
0.11,0.04,-1.04,28.87,-16.66,-45.41,-0.12,-7.60,48.66,2
0.09,0.07,-1.00,56.34,-2.62,-103.45,4.53,-12.07,44.42,2
0.21,0.09,-0.99,40.04,3.85,-91.67,10.82,-15.84,39.53,2
0.18,0.10,-0.96,15.50,14.10,-26.79,12.38,-16.28,38.60,2
0.18,0.11,-1.00,-28.75,2.75,-41.99,14.26,-16.28,38.23,2
0.22,0.11,-1.04,-25.76,0.49,-34.48,15.21,-12.65,40.27,2
0.17,0.10,-1.00,-2.01,-7.51,-42.91,17.55,-11.44,40.01,2
0.29,0.11,-1.03,23.50,-10.80,-55.85,19.21,-10.90,38.83,2
0.28,0.09,-0.96,-11.29,-6.84,-36.01,22.89,-10.24,36.67,2
0.16,0.04,-0.94,5.31,-1.71,-4.70,24.33,-9.11,35.99,2
0.12,-0.01,-1.00,-26.86,14.16,-9.22,23.27,-7.59,36.66,2
0.12,-0.05,-1.04,0.06,-0.06,3.66,24.23,-6.54,36.57,2
0.12,-0.05,-1.00,-14.10,10.13,12.63,22.97,-6.46,36.08,2
0.12,-0.07,-0.97,-31.37,14.10,31.49,21.37,-6.93,37.67,2
0.19,-0.09,-0.98,-24.78,11.54,39.43,17.96,-5.85,40.67,2
0.16,-0.11,-1.01,-9.77,11.41,50.60,16.47,-5.71,41.59,2
0.19,-0.07,-1.03,3.91,-6.77,43.58,14.22,-6.71,42.04,2
0.18,-0.06,-1.02,16.17,-3.36,14.77,13.55,-6.51,42.66,2
0.13,-0.02,-1.01,34.73,-11.29,-1.53,13.50,-9.28,41.47,2
0.13,-0.02,-0.98,21.67,0.37,-3.85,14.23,-10.38,40.52,2
0.17,-0.00,-1.01,-9.03,-5.19,2.62,14.05,-11.24,39.65,2
0.18,-0.04,-1.02,-30.82,-3.17,26.73,14.17,-9.96,40.61,2
0.16,-0.02,-0.98,-12.94,-6.47,20.75,12.88,-8.72,40.94,2
0.16,-0.05,-0.97,11.17,-8.00,12.88,13.12,-8.29,41.39,2
0.18,-0.03,-0.96,10.93,2.99,8.79,12.54,-10.41,41.14,2
0.21,0.03,-1.01,2.81,3.11,1.28,12.27,-10.55,38.77,2
0.18,0.03,-0.99,16.85,-2.44,10.80,12.15,-11.38,43.52,2
0.16,0.03,-0.96,11.66,8.18,12.76,12.02,-12.60,39.61,2
0.18,0.05,-1.00,-0.73,7.14,12.39,10.53,-13.85,39.54,2
0.16,0.03,-0.98,-11.90,4.03,8.54,9.05,-12.90,39.17,2
0.16,0.05,-1.03,-8.73,5.37,20.51,8.12,-12.38,39.95,2
0.17,0.04,-0.98,11.17,-8.06,32.71,6.81,-12.18,39.89,2
0.17,0.08,-1.00,14.22,-10.31,33.51,5.64,-12.84,40.14,2
0.14,0.09,-1.00,-2.14,-3.11,24.54,4.88,-13.90,39.77,2
0.14,0.09,-0.98,-0.55,2.44,39.86,3.83,-14.14,39.11,2
0.15,0.06,-0.99,-26.61,14.34,40.71,0.81,-13.90,39.98,2
0.11,0.04,-0.99,-22.83,13.43,35.64,-2.95,-11.49,41.78,2
0.09,0.04,-1.03,-3.30,-0.18,17.88,-5.00,-9.18,43.24,2
0.09,0.03,-1.01,7.87,-11.35,-11.78,-5.55,-8.75,43.62,2
0.09,0.03,-1.00,-3.48,-22.89,-92.90,-2.72,-10.03,43.12,2
0.16,-0.06,-0.98,-4.39,-2.26,-69.21,3.19,-9.81,43.24,2
0.14,-0.08,-1.00,-5.43,3.42,-50.54,5.76,-8.47,44.15,2
0.16,-0.14,-0.99,-3.66,8.61,-8.61,6.58,-8.58,43.36,2
0.11,-0.07,-1.04,-16.85,-8.97,7.02,6.43,-8.02,44.74,2
0.14,-0.10,-1.00,6.35,-12.08,37.29,7.32,-7.09,45.34,2
0.17,-0.11,-0.98,-3.91,3.48,60.55,4.74,-6.79,46.70,2
0.07,-0.02,-0.98,-0.85,22.03,84.41,3.21,-5.10,46.44,2
0.14,-0.02,-0.99,15.44,12.39,76.84,-2.92,-3.96,47.29,2
0.02,0.01,-1.03,9.52,4.64,79.96,-7.70,-3.47,47.12,2
0.13,0.06,-1.01,-5.49,-17.27,16.78,-8.51,-2.34,47.96,2
0.16,0.10,-1.01,-12.02,-13.98,6.23,-8.12,-2.53,46.89,2
0.14,0.07,-1.00,-12.39,-14.53,-0.37,-6.60,-0.88,49.72,2
0.12,0.05,-0.99,12.08,-34.36,-53.59,-2.66,-0.56,50.70,2
0.20,0.02,-0.95,6.10,-8.00,-27.47,1.15,-1.98,50.18,2
0.22,0.02,-0.99,-5.07,7.87,-5.86,1.17,-2.58,50.09,2
0.23,-0.01,-0.99,5.13,4.46,-1.04,0.74,-2.27,50.59,2
0.18,-0.01,-0.99,14.40,6.53,-3.78,-0.13,-3.43,49.24,2
0.14,0.03,-0.99,16.97,18.49,1.65,-1.44,-5.51,48.21,2
0.16,0.07,-1.05,-9.83,12.51,29.24,-3.11,-6.02,48.90,2
0.11,0.05,-1.03,-5.86,-5.31,-4.03,-4.92,-5.20,49.73,2
0.15,0.03,-1.01,-9.52,-10.99,-4.33,-2.81,-4.32,49.05,2
0.13,-0.04,-0.99,-11.72,3.17,24.05,-2.82,-3.65,51.07,2
0.17,0.02,-0.99,13.31,-2.99,75.13,-5.08,-2.20,50.01,2
0.14,0.06,-1.04,5.19,6.84,50.78,-7.63,-2.47,50.68,2
0.09,0.07,-1.00,-2.20,11.84,37.84,-10.30,-1.76,50.07,2
0.10,0.09,-0.99,-16.60,13.31,38.64,-11.67,-1.33,48.82,2
0.07,0.05,-1.07,-18.01,-5.92,46.69,-14.67,2.29,50.09,2
0.05,0.06,-1.02,10.74,2.81,40.65,-15.16,4.20,49.71,2
0.06,0.04,-1.01,14.77,2.26,27.53,-17.93,4.30,49.37,2
0.00,0.11,-1.01,3.17,2.75,28.14,-17.52,4.43,48.80,2
0.05,0.12,-1.01,-13.18,-5.19,29.36,-18.77,5.58,49.40,2
-0.02,0.08,-1.00,1.89,-0.18,-2.99,-18.35,6.79,49.39,2
0.02,0.05,-0.99,18.13,2.87,-38.57,-17.63,5.18,48.47,2
0.13,0.12,-0.97,-19.59,-29.42,59.27,-17.98,5.65,49.13,2
0.12,0.09,-1.02,-12.45,-3.05,27.77,-18.01,9.42,48.71,2
0.06,0.08,-1.02,7.69,15.87,-18.80,-18.07,9.51,49.39,2
0.02,0.06,-1.03,19.17,28.20,-105.29,-18.86,4.99,47.66,2
-0.01,0.10,-1.03,14.34,17.46,-143.13,-18.69,2.55,46.58,2
0.04,0.17,-1.02,5.07,10.74,-141.05,-14.05,-4.63,46.22,2
0.02,0.04,-0.98,-24.78,-20.32,-125.79,-7.70,-7.70,45.59,2
0.13,0.00,-1.01,-24.17,-22.03,-61.04,-1.84,-7.26,46.59,2
0.17,-0.02,-1.04,-14.65,-21.79,-55.85,-0.10,-5.85,47.36,2
0.13,0.01,-0.98,39.92,-5.43,5.68,3.45,-6.42,46.97,2
0.19,0.07,-0.95,22.22,-2.08,-10.31,3.03,-9.79,45.29,2
0.06,0.09,-1.03,6.41,1.34,-36.93,4.92,-11.17,45.91,2
-0.02,0.16,-0.98,7.26,30.70,-68.24,5.70,-10.67,44.95,2
0.18,0.10,-0.90,17.82,12.57,-70.07,7.24,-11.28,44.57,2
0.16,0.08,-1.04,-22.09,4.76,-5.92,10.41,-10.74,43.79,2
0.09,0.04,-0.98,-6.35,-4.33,-26.73,10.00,-9.81,45.02,2
0.16,0.02,-0.98,-8.61,1.53,-19.71,10.39,-9.14,44.65,2
0.12,0.04,-1.04,3.78,1.95,-6.65,10.91,-8.91,45.46,2
0.14,0.03,-0.98,5.07,-3.05,-1.34,11.51,-9.22,45.35,2
0.14,0.03,-1.00,-0.31,-2.38,-8.30,11.60,-8.69,46.14,2
0.13,0.03,-1.00,-2.26,-4.94,-11.23,12.51,-8.78,46.77,2
0.12,0.03,-0.98,-0.73,0.92,-15.87,12.93,-7.02,45.79,2
0.15,0.04,-1.01,3.54,0.73,-11.54,13.64,-7.20,44.95,2
0.15,0.04,-1.00,7.26,0.73,-11.11,14.38,-7.78,44.75,2
0.13,0.04,-1.00,3.05,0.43,-18.55,14.88,-7.65,43.46,2
0.14,0.04,-0.98,5.80,3.30,-21.85,16.02,-8.24,42.96,2
0.17,0.07,-1.04,-7.87,9.28,-29.54,16.99,-6.42,43.30,2
0.15,0.07,-0.99,15.14,0.73,-21.55,17.58,-7.37,43.81,2
0.11,0.08,-1.02,11.60,0.55,-25.63,18.35,-7.90,42.49,2
0.12,0.08,-0.97,10.74,-1.10,-21.67,19.75,-8.42,42.00,2
0.15,0.10,-0.99,5.37,2.20,-21.67,20.98,-7.84,40.69,2
0.16,0.10,-1.01,2.69,3.54,-17.21,21.66,-7.87,41.37,2
0.13,0.13,-0.95,-14.10,9.46,-41.02,23.01,-7.60,41.39,2
0.07,0.08,-0.99,0.43,22.46,-31.49,22.97,-4.59,41.59,2
0.09,0.07,-1.01,-0.24,4.03,-46.26,22.88,-2.70,43.20,2
0.08,0.15,-0.97,1.95,-2.69,-40.83,23.57,-1.32,43.32,2
0.06,0.00,-1.02,9.16,1.04,-28.38,25.50,0.35,42.96,2
0.05,0.05,-1.05,-8.24,-11.35,-2.56,26.31,1.49,43.46,2
0.09,0.03,-1.07,-8.24,-3.11,-8.85,27.09,2.08,43.29,2
0.10,0.03,-0.99,-1.16,0.98,-21.85,27.49,2.84,43.42,2
0.09,-0.01,-1.01,-2.81,2.38,-30.27,27.88,4.10,42.88,2
0.09,0.01,-0.95,-12.02,0.98,-33.14,27.72,6.46,42.30,2
0.08,-0.03,-1.01,-4.70,1.89,-20.08,27.28,8.57,43.57,2
0.06,-0.05,-1.00,-2.14,-7.02,-26.67,27.75,9.40,43.15,2
0.08,-0.01,-1.04,15.08,-3.85,-8.06,28.45,10.66,43.86,2
0.09,-0.02,-1.03,5.25,3.66,3.66,28.10,10.30,43.49,2
0.07,-0.00,-1.02,3.42,2.44,-9.22,27.65,10.01,42.44,2
0.08,0.04,-1.01,9.89,-3.30,-24.35,27.43,9.51,44.10,2
0.10,0.05,-1.00,12.94,-13.98,-34.91,29.19,11.07,42.88,2
0.13,0.08,-1.00,1.77,3.54,-17.58,29.76,11.36,41.63,2
0.07,0.05,-1.03,-7.51,-1.65,-6.35,29.46,11.95,42.07,2
0.07,0.02,-1.03,-30.21,0.67,-20.20,29.05,13.67,42.63,2
-0.01,-0.01,-0.96,-14.95,-4.82,-44.07,28.63,16.41,42.96,2
0.10,-0.08,-1.01,2.50,8.73,-20.14,28.50,18.76,41.67,2
0.10,-0.00,-1.01,-0.43,7.81,-14.77,28.20,19.01,43.46,2
0.06,-0.05,-1.03,6.96,1.95,-18.37,27.88,19.29,43.04,2
0.05,-0.05,-0.94,15.26,17.15,-34.36,26.87,20.29,43.77,2
0.02,-0.02,-1.07,7.08,2.38,-37.17,25.15,22.01,43.54,2
0.04,-0.01,-1.05,3.05,11.96,-37.72,23.62,23.03,44.78,2
-0.00,-0.02,-1.02,-8.12,-1.16,-28.20,23.19,23.45,43.80,2
-0.02,-0.08,-1.02,1.04,1.53,-30.76,22.86,25.71,45.01,2
0.03,-0.05,-1.06,-3.54,0.92,-14.47,21.01,26.64,44.08,2
0.02,-0.02,-1.00,-0.24,-1.53,-29.11,20.64,27.75,45.51,2
0.03,-0.04,-0.98,8.06,-9.16,-24.05,20.20,27.27,44.15,2
0.02,-0.02,-1.03,-6.29,-2.50,-46.33,19.35,28.47,43.97,2
0.02,-0.07,-1.02,-13.49,3.85,-42.18,18.03,30.68,44.15,2
0.05,-0.06,-1.02,-9.89,5.98,-20.57,16.66,32.35,43.92,2
-0.01,-0.10,-1.03,-0.79,4.88,-9.40,16.21,33.18,44.04,2
-0.02,-0.10,-1.00,11.35,-4.15,-9.22,15.09,32.64,44.38,2
0.08,-0.05,-1.01,-12.08,-2.81,2.20,14.97,32.86,43.51,2
-0.03,-0.14,-1.05,-10.01,-2.75,15.63,15.58,33.54,43.09,2
-0.00,-0.15,-1.02,1.04,-0.37,1.53,15.66,34.13,43.23,2
0.04,-0.12,-0.99,1.59,-3.66,-0.12,16.75,33.33,43.95,2
0.06,-0.05,-1.02,5.98,-8.91,16.97,18.40,33.74,43.57,2
0.05,-0.01,-1.02,7.02,-0.55,23.01,18.85,33.01,43.18,2
0.02,-0.03,-1.00,-3.17,9.16,30.21,20.24,31.19,43.14,2
0.06,-0.02,-1.02,-0.49,7.69,21.36,20.17,30.85,44.03,2
0.03,-0.07,-1.00,-0.06,9.22,28.14,20.23,29.55,45.06,2
0.03,-0.01,-1.01,3.30,7.20,-0.24,20.67,29.03,44.69,2
0.00,0.00,-1.01,22.28,1.34,-44.13,20.03,28.00,45.15,2
-0.03,-0.01,-1.07,16.17,-9.16,-23.38,19.58,27.77,46.11,2
0.02,0.03,-1.03,5.92,-6.84,-24.60,19.98,27.62,46.37,2
0.02,0.01,-1.03,1.22,-7.02,-18.13,20.15,27.54,45.32,2
0.05,0.01,-0.99,-28.69,7.51,-28.38,20.30,28.82,45.42,2
0.03,-0.01,-1.00,-8.42,8.36,-25.21,18.41,31.13,43.85,2
-0.00,-0.05,-1.05,-7.93,0.12,-42.05,16.70,33.58,43.30,2
0.02,-0.02,-1.00,2.50,0.61,-3.66,16.28,34.16,44.89,2
0.01,-0.04,-1.03,-3.72,7.39,4.76,15.76,34.38,44.48,2
-0.03,-0.04,-1.04,4.39,8.12,-10.62,14.25,34.99,44.74,2
-0.04,-0.02,-1.03,12.33,-10.99,-29.60,13.16,33.34,46.02,2
0.05,0.01,-0.98,-10.01,-8.06,-50.84,13.43,33.96,45.25,2
0.04,-0.03,-1.05,-0.12,8.61,-24.17,12.77,35.16,45.07,2
-0.05,-0.03,-1.00,1.04,7.87,-14.40,11.51,35.82,44.84,2
-0.03,-0.05,-1.02,-3.30,15.44,-15.44,8.67,35.84,44.92,2
-0.05,-0.01,-1.05,0.85,18.07,-0.43,7.60,35.93,45.35,2
-0.08,-0.08,-1.03,-18.68,20.08,57.50,6.40,36.35,46.41,2
-0.15,-0.12,-1.02,-17.64,15.38,72.57,7.25,36.52,46.25,2
-0.16,-0.12,-1.03,-10.68,5.80,36.62,9.35,36.02,46.24,2
-0.16,-0.10,-1.02,15.56,-3.78,-33.51,8.72,35.91,46.17,2
-0.10,-0.05,-1.03,23.13,-21.48,-31.86,8.83,34.95,46.94,2
-0.05,-0.03,-1.02,4.70,-14.16,-16.72,8.61,33.45,46.97,2
-0.04,-0.06,-1.04,-2.32,-11.90,0.24,10.22,32.39,47.00,2
-0.02,-0.10,-1.02,-8.18,-3.48,4.58,10.27,32.48,48.50,2
0.02,-0.09,-0.99,-10.56,5.31,23.99,10.58,32.91,47.73,2
0.03,-0.11,-0.97,-20.63,6.96,33.26,10.83,33.67,46.42,2
-0.01,-0.10,-0.99,-4.15,4.46,41.87,13.38,34.13,48.56,2
0.03,-0.08,-1.01,2.38,4.94,46.08,14.06,34.62,46.35,2
-0.02,-0.10,-1.03,1.65,10.86,26.31,15.04,33.89,46.64,2
-0.10,-0.12,-1.04,-16.72,1.46,41.69,16.71,34.53,44.64,2
-0.04,-0.13,-1.05,1.16,3.60,39.37,18.38,33.76,44.31,2
-0.13,-0.10,-0.98,18.13,1.53,57.25,19.38,32.56,43.38,2
-0.09,-0.11,-1.02,11.35,6.04,26.18,19.80,30.37,44.08,2
-0.10,-0.09,-1.03,7.45,-8.00,-23.01,20.09,29.30,44.19,2
0.00,-0.09,-0.96,-8.79,-18.55,-71.96,19.86,29.77,44.80,2
0.07,-0.08,-1.04,-25.57,-32.53,-56.64,18.92,33.97,42.07,2
0.02,-0.14,-1.02,2.87,3.05,-61.71,17.91,37.70,41.94,2
-0.03,-0.18,-1.03,4.52,10.99,-6.84,15.97,38.66,42.57,2
-0.03,-0.12,-1.07,9.58,3.66,4.76,16.13,38.60,41.26,2
-0.03,-0.11,-1.02,5.74,3.48,3.78,15.76,38.50,43.95,2
0.02,-0.04,-0.98,11.54,-20.08,29.79,17.13,37.62,42.61,2
-0.01,-0.11,-1.01,-9.28,-0.79,48.46,19.80,36.17,41.46,2
0.06,-0.04,-0.99,0.79,-1.71,38.82,20.24,35.72,41.55,2
-0.00,-0.08,-1.01,-0.79,18.49,23.32,21.91,34.19,41.20,2
-0.09,-0.09,-0.97,-6.16,-0.55,6.29,22.06,33.01,40.78,2
0.04,-0.10,-1.02,4.09,4.76,-15.69,21.36,33.73,42.47,2
0.02,-0.12,-1.02,3.11,-17.09,0.79,21.26,33.95,41.97,2
0.02,-0.19,-1.02,-9.95,-1.28,18.49,22.51,34.85,42.33,2
0.05,-0.21,-1.01,-41.56,3.30,74.77,24.02,33.81,40.22,2
0.03,-0.16,-0.98,-18.86,21.30,87.16,25.59,32.50,40.52,2
0.01,-0.15,-0.99,-0.12,12.27,26.25,26.32,30.94,40.06,2
-0.01,-0.13,-1.00,31.19,0.67,13.61,27.10,28.50,41.05,2
0.02,-0.12,-1.00,10.50,-1.34,28.26,27.76,25.27,40.70,2
0.04,-0.13,-1.02,-1.04,-5.49,44.74,28.69,22.56,40.33,2
0.02,-0.13,-0.98,-13.00,-6.29,37.29,28.96,21.17,39.60,2
0.07,-0.11,-1.02,-4.88,-0.98,31.01,30.05,19.68,40.48,2
0.05,-0.14,-0.98,-2.44,-7.81,34.24,30.83,17.83,39.79,2
0.11,-0.16,-1.00,1.59,-0.92,24.17,31.52,17.30,39.38,2
0.10,-0.07,-0.91,-6.77,-17.82,45.10,31.49,15.81,39.43,2
0.13,-0.20,-0.99,-16.36,-3.54,13.00,32.76,15.16,37.65,2
0.14,-0.15,-0.99,23.86,8.85,6.41,32.21,13.49,38.89,2
0.13,-0.12,-1.00,4.03,2.38,10.01,32.40,11.66,40.28,2
0.13,-0.10,-1.01,5.37,11.23,-0.18,32.06,11.54,40.75,2
0.13,-0.08,-1.02,13.73,5.86,-8.24,30.73,12.11,40.42,2
0.07,-0.11,-1.00,19.53,11.66,-15.50,30.04,11.44,40.26,2
0.09,-0.02,-1.00,32.78,0.85,-47.85,29.75,10.62,40.82,2
0.07,0.00,-1.00,0.31,-4.46,-16.91,30.30,10.52,40.73,2
0.05,-0.08,-1.04,-3.91,-0.55,-31.49,30.21,11.67,41.26,2
0.01,0.03,-1.03,-7.14,-3.78,0.31,30.70,13.45,39.55,2
0.09,0.00,-1.00,14.59,-0.43,-3.23,30.51,14.43,40.39,2
0.01,-0.02,-0.98,-3.91,7.14,-47.36,30.36,14.59,40.88,2
0.06,-0.03,-1.00,21.67,4.88,-49.26,29.43,17.64,40.16,2
0.12,0.03,-1.03,-2.32,17.88,-29.11,28.41,19.43,42.04,2
0.00,0.02,-1.00,-4.52,-2.50,8.48,28.49,19.41,42.99,2
0.10,-0.01,-1.00,1.59,-10.99,24.35,28.44,19.70,42.24,2
0.07,-0.04,-0.95,-1.77,8.18,68.48,29.37,17.19,41.22,2
0.04,-0.06,-0.99,-51.33,7.81,62.44,28.87,15.71,41.64,2
0.08,-0.03,-1.00,30.82,-5.00,7.45,28.77,13.90,40.80,2
0.04,-0.00,-1.02,9.70,-5.86,11.78,29.43,13.11,41.09,2
0.06,-0.03,-1.00,-7.26,1.53,9.28,29.64,11.99,40.42,2
0.08,-0.06,-0.98,14.59,3.91,54.69,28.93,10.69,39.77,2
0.04,0.04,-1.00,-6.53,3.78,46.33,28.89,8.19,40.53,2
-0.02,-0.02,-1.01,6.41,9.89,58.29,27.61,5.52,41.24,2
-0.01,-0.00,-0.99,8.18,-7.75,53.04,25.13,2.28,41.42,2
0.07,0.06,-1.06,-13.67,-0.06,16.85,25.10,0.88,42.03,2
0.01,-0.03,-0.98,-7.93,7.45,21.61,23.91,0.45,41.16,2
0.01,0.01,-1.01,-12.08,3.42,10.62,23.21,0.76,42.50,2
-0.00,-0.03,-1.00,0.98,-3.66,3.23,22.29,1.35,42.92,2
0.00,-0.03,-1.01,13.92,-10.01,2.87,22.61,0.78,42.18,2
0.03,-0.02,-1.00,18.25,-16.97,20.75,22.86,-0.94,41.04,2
0.06,0.00,-1.00,12.70,-10.07,20.51,23.16,-2.92,41.32,2
0.06,0.02,-1.02,-3.97,-0.55,20.51,23.28,-4.50,41.86,2
0.07,0.01,-1.01,9.46,-4.58,20.57,22.40,-5.31,41.76,2
0.08,0.03,-0.99,0.79,-1.71,29.24,22.12,-5.44,40.49,2
0.07,0.05,-0.97,3.23,1.22,32.78,20.19,-7.18,40.56,2
0.06,0.07,-1.01,-3.85,0.24,32.59,18.66,-8.33,39.59,2
0.03,0.02,-1.03,-14.65,1.04,35.10,16.38,-8.81,41.60,2
0.04,0.09,-1.00,-4.27,-9.83,40.41,15.86,-8.95,42.35,2
0.06,0.05,-0.98,5.98,-13.55,38.45,13.96,-9.50,42.46,2
0.06,0.09,-0.98,3.60,-11.90,27.22,12.44,-10.78,43.31,2
0.09,0.05,-1.00,8.73,-6.90,25.70,12.67,-11.33,42.26,2
0.12,0.06,-1.00,10.01,-7.08,21.24,12.62,-11.58,42.16,2
0.12,0.12,-1.05,-6.77,2.38,18.37,10.53,-12.85,41.76,2
0.13,0.08,-1.06,3.48,9.03,22.89,8.36,-12.99,41.60,2
0.06,0.09,-0.97,9.58,-5.19,2.20,7.31,-13.56,41.46,2
0.09,0.13,-1.00,-12.94,-5.25,22.52,7.37,-13.20,41.92,2
-0.04,0.13,-0.95,-1.34,3.30,21.42,5.93,-12.29,42.50,2
0.05,0.10,-0.98,16.91,-13.67,6.65,4.53,-13.43,41.93,2
0.08,0.15,-1.00,4.03,11.41,22.16,4.28,-14.75,42.05,2
0.02,0.12,-1.00,-2.99,2.50,20.94,3.36,-15.43,39.92,2
0.09,0.14,-1.03,-0.98,-3.91,6.90,2.16,-15.01,40.48,2
0.02,0.13,-0.98,-8.36,7.69,16.78,0.87,-15.26,40.64,2
0.04,0.12,-1.02,-9.34,12.33,11.17,-1.39,-14.15,42.93,2
-0.02,0.11,-1.02,-10.13,-1.28,10.19,-2.22,-13.00,41.88,2
0.04,0.07,-0.98,0.12,-10.56,5.37,-1.61,-12.45,42.30,2
0.01,0.13,-1.01,0.18,-12.15,23.86,-1.86,-11.93,42.48,2
0.01,0.07,-0.98,2.56,3.36,33.87,-2.23,-12.40,43.38,2
0.04,0.09,-0.98,-5.68,-3.17,18.49,-4.57,-12.65,42.40,2
0.03,0.10,-1.01,2.44,5.92,26.61,-5.75,-12.28,42.47,2
0.01,0.08,-1.01,-6.41,-4.94,22.03,-8.90,-11.65,43.29,2
0.01,0.08,-1.01,-7.02,-8.67,2.26,-8.76,-10.97,42.07,2
0.05,0.05,-1.01,-22.71,-27.89,4.46,-7.90,-9.72,44.36,2
0.03,0.04,-1.00,-10.38,-3.30,24.05,-7.23,-7.97,44.80,2
0.03,0.03,-1.03,-4.70,4.64,37.17,-9.50,-6.16,46.26,2
0.05,-0.01,-1.00,-2.38,1.89,32.29,-11.12,-5.79,44.56,2
0.08,0.01,-1.00,-8.67,-20.32,14.71,-11.90,-4.14,47.01,2
0.09,0.00,-1.01,-1.10,-6.10,26.25,-10.83,-3.21,47.99,2
0.08,-0.02,-0.99,-8.42,-4.21,36.01,-11.93,-2.17,47.16,2
0.08,-0.03,-0.98,-23.38,-13.43,32.78,-12.52,-1.01,47.92,2
0.12,-0.04,-0.99,-4.52,-0.24,28.20,-13.31,2.32,47.95,2
0.08,-0.05,-0.99,7.75,12.39,32.96,-13.37,3.16,48.32,2
0.05,-0.03,-0.97,-0.98,11.41,21.18,-15.63,4.25,48.46,2
0.05,0.01,-1.02,0.18,2.26,26.49,-16.48,4.64,48.65,2
0.09,-0.04,-1.03,-11.35,10.50,21.18,-18.13,5.02,48.19,2
0.04,-0.05,-1.03,-12.45,-6.65,20.26,-18.85,7.96,49.07,2
0.05,-0.04,-1.03,27.22,4.52,0.49,-19.73,7.93,48.49,2
0.04,-0.01,-0.99,5.92,4.33,-7.45,-19.21,6.14,47.30,2
0.04,0.00,-1.00,8.30,2.93,-17.15,-19.43,4.35,47.47,2
0.06,0.05,-1.04,9.77,23.25,-20.81,-20.12,3.17,46.28,2
0.02,0.06,-1.04,12.63,15.63,4.33,-20.21,2.39,45.42,2
-0.02,0.05,-0.99,-3.91,2.32,-12.08,-21.04,1.68,46.04,2
-0.01,0.04,-0.95,2.81,-22.16,-24.78,-20.53,1.12,46.59,2
-0.03,0.00,-1.00,21.48,-19.23,26.61,-17.76,0.11,46.07,2
0.07,0.12,-1.01,31.74,-24.90,53.10,-17.36,-1.66,46.84,2
0.13,0.13,-1.00,-26.18,-3.97,22.22,-17.50,-1.40,46.02,2
0.08,0.08,-1.04,-59.81,-17.03,-0.31,-17.41,2.97,48.00,2
0.09,-0.03,-0.99,-27.16,-6.35,-30.21,-15.95,6.97,50.06,2
0.12,-0.03,-1.00,13.18,-1.10,-17.58,-15.34,6.36,50.55,2
0.14,0.02,-1.01,39.25,-8.97,-0.79,-14.11,4.80,50.07,2
0.15,0.07,-1.02,-1.16,-32.04,22.09,-11.73,2.94,50.93,2
0.15,0.07,-0.98,-15.32,-12.70,24.29,-10.94,4.24,51.22,2
0.19,0.02,-1.00,-22.58,6.04,21.97,-11.22,6.38,51.66,2
0.17,-0.00,-0.91,-13.92,15.69,2.38,-10.84,7.36,50.12,2
0.20,-0.01,-1.02,1.95,21.12,16.30,-12.68,8.25,50.76,2
0.07,0.03,-1.02,3.48,7.08,18.55,-15.17,8.50,50.88,2
0.13,0.02,-1.00,11.47,-2.32,10.38,-14.84,9.03,50.44,2
0.11,0.03,-1.02,-9.16,-3.66,26.49,-14.37,8.86,50.71,2
0.18,0.04,-1.03,-5.43,6.53,50.29,-15.42,10.35,50.51,2
0.11,0.05,-0.99,3.36,-6.04,47.06,-16.25,12.40,49.67,2
0.10,0.00,-0.99,-16.66,-7.93,15.44,-15.48,13.35,49.84,2
0.16,-0.01,-1.03,-17.15,-7.20,1.40,-15.32,16.17,51.90,2
0.16,-0.03,-1.02,4.21,-4.52,-4.82,-14.65,17.49,50.85,2
0.13,-0.02,-1.00,16.17,-1.83,2.26,-13.93,15.80,52.51,2
0.17,-0.01,-1.02,-2.62,-5.55,13.37,-13.99,15.52,51.60,2
0.18,-0.01,-0.99,-5.86,-19.10,31.31,-13.01,16.28,51.55,2
0.23,-0.01,-0.98,-12.57,-25.45,37.05,-11.07,17.24,51.28,2
0.26,-0.01,-1.04,-15.20,-6.90,25.27,-9.08,20.43,51.73,2
0.25,-0.01,-1.00,40.22,11.35,16.05,-8.89,20.95,52.69,2
0.22,0.10,-0.99,21.91,-1.71,57.50,-10.64,17.42,51.34,2
0.21,0.15,-0.96,-7.75,-7.81,20.14,-9.63,16.87,51.70,2
0.24,0.12,-0.99,9.70,0.85,-5.98,-9.27,16.71,52.39,2
0.24,0.11,-0.97,-6.84,4.03,-27.83,-9.13,15.78,52.28,2
0.25,0.04,-0.99,-16.97,0.85,-15.38,-9.48,16.58,52.27,2
0.25,0.06,-0.98,3.17,2.38,3.30,-9.67,17.68,52.84,2
0.24,0.03,-0.95,-22.22,1.40,20.20,-10.57,18.12,51.15,2
0.24,-0.03,-1.05,-40.95,10.68,11.05,-10.30,20.89,52.22,2
0.21,-0.03,-1.03,2.50,8.06,18.80,-11.95,24.19,52.11,2
0.19,0.01,-1.01,20.45,13.12,22.40,-12.78,23.96,51.16,2
0.14,0.05,-1.00,21.91,10.31,5.13,-13.78,22.12,50.04,2
0.14,0.06,-0.99,-0.55,-0.31,5.55,-13.45,20.87,50.22,2
0.18,0.05,-1.00,11.05,2.87,6.71,-13.54,20.62,50.51,2
0.17,0.04,-1.00,-4.94,2.44,13.61,-13.34,20.75,50.39,2
0.12,0.06,-1.01,-37.90,-0.92,17.27,-13.66,24.01,50.93,2
0.12,0.02,-0.99,-10.86,-2.50,13.31,-13.04,24.71,50.78,2
0.12,-0.02,-1.03,-5.68,-1.53,7.75,-12.27,27.42,49.21,2
0.14,-0.03,-1.01,-0.55,-0.67,9.03,-12.39,27.16,49.82,2
0.13,-0.01,-1.02,-11.05,1.22,3.30,-12.73,27.40,48.85,2
0.11,-0.02,-1.05,-8.85,0.61,-2.32,-12.32,27.40,49.21,2
0.13,0.00,-0.98,22.46,4.15,-51.64,-11.91,27.49,48.78,2
0.10,-0.01,-1.02,19.04,10.99,-83.56,-14.51,22.74,49.89,2
0.12,-0.01,-0.99,9.46,14.34,-60.49,-16.99,18.44,49.02,2
0.12,0.02,-0.99,-17.52,0.18,-6.35,-17.38,17.99,48.72,2
0.11,-0.03,-1.03,9.77,3.72,-1.95,-18.14,19.24,48.61,2
0.09,-0.01,-1.03,11.54,1.46,-9.64,-17.83,18.14,49.00,2
0.11,0.00,-1.03,-6.53,-5.55,-27.71,-17.64,16.53,49.15,2
0.10,0.01,-1.02,-4.03,-4.58,-15.99,-17.77,16.38,49.18,2
0.06,0.00,-1.04,9.89,-3.23,-16.85,-16.61,16.96,48.45,2
0.11,-0.02,-1.00,9.40,-11.78,-48.52,-16.02,13.87,50.70,2
0.14,-0.02,-1.03,-27.89,10.38,-51.64,-15.88,14.37,50.05,2
0.09,-0.04,-0.99,-8.48,6.47,-34.12,-16.93,13.45,50.02,2
0.10,-0.04,-1.02,15.26,-12.82,-50.90,-16.70,12.46,49.45,2
0.11,0.00,-1.03,21.97,-10.31,-44.80,-15.67,8.51,48.80,2
0.14,0.04,-1.02,25.02,-3.23,-38.82,-14.25,3.53,46.98,2
0.18,0.08,-0.99,14.40,-2.01,-12.57,-13.27,1.57,48.63,2
0.14,0.08,-1.01,-5.80,-0.06,4.46,-13.54,0.11,46.30,2
0.14,0.07,-1.01,-7.93,-0.37,-9.22,-14.09,1.07,48.02,2
0.14,0.09,-1.00,-2.44,0.73,-5.92,-13.55,1.21,47.80,2
0.14,0.04,-1.00,-4.94,7.02,-21.67,-12.98,1.72,48.36,2
0.10,0.02,-1.06,-6.04,3.85,-36.13,-13.15,2.43,48.06,2
0.15,0.01,-1.03,-7.75,-1.77,-33.14,-11.98,0.61,48.40,2
0.14,0.02,-1.02,9.28,0.85,-27.16,-11.44,0.31,47.67,2
0.14,0.00,-1.00,3.60,-2.08,-15.32,-10.84,-1.14,47.09,2
0.13,0.02,-1.01,15.38,2.14,-10.62,-10.27,-2.66,47.52,2
0.11,0.04,-0.98,4.94,6.59,-10.68,-10.49,-3.39,47.72,2
0.13,0.03,-0.99,-10.80,1.28,10.31,-11.76,-3.63,47.24,2
0.09,0.05,-1.00,7.75,-1.22,-11.66,-11.54,-2.11,47.64,2
0.11,0.04,-0.97,5.55,-1.46,-56.40,-10.13,-4.00,46.90,2
0.16,-0.05,-0.98,-8.85,-11.17,-100.40,-6.63,-5.08,47.46,2
0.14,-0.03,-1.03,-0.12,4.46,-21.73,-4.99,-5.57,47.42,2
0.16,0.03,-1.03,9.03,4.39,-11.78,-3.56,-6.74,46.31,2
0.07,0.06,-1.04,38.02,17.82,-10.93,-4.57,-8.98,45.50,2
0.05,0.14,-1.02,36.56,6.35,-33.08,-4.14,-12.44,43.03,2
0.06,0.15,-0.97,0.85,-1.59,-5.55,-3.93,-14.10,42.70,2
0.11,0.13,-1.00,-25.76,-11.11,-15.32,-3.11,-13.59,43.76,2
0.06,0.15,-1.07,-10.07,17.46,-18.37,-1.28,-12.48,44.37,2
0.05,0.06,-0.99,-3.97,10.38,-8.24,-1.01,-11.76,43.32,2
0.08,0.13,-1.02,17.82,-1.65,-13.00,-1.26,-12.85,42.94,2
0.05,0.12,-0.98,14.65,2.87,-27.71,-1.14,-14.51,41.54,2
0.07,0.12,-1.00,-29.36,-10.80,-15.56,0.96,-14.20,42.20,2
0.08,0.15,-1.01,8.24,-20.69,-32.17,2.81,-12.87,44.40,2
0.07,0.12,-1.01,17.03,-10.38,-33.26,4.54,-14.32,41.80,2
0.14,0.13,-1.02,-15.38,-1.59,-34.79,8.04,-15.12,43.01,2
0.13,0.08,-0.97,-11.60,-7.81,-34.24,10.72,-12.93,43.65,2
0.21,0.10,-1.03,-14.10,-11.72,-13.00,13.11,-11.76,43.55,2
0.17,0.11,-0.97,6.35,1.53,-18.98,13.21,-11.13,43.62,2
0.17,0.02,-1.00,-13.49,21.55,-42.05,14.49,-10.24,43.97,2
0.12,0.02,-1.02,-8.24,25.63,-35.71,14.34,-7.93,44.02,2
0.12,0.02,-1.02,10.19,14.34,-21.12,13.88,-7.62,46.41,2
0.11,0.00,-1.00,18.31,-1.59,-14.22,13.88,-7.71,43.52,2
0.11,0.01,-1.01,4.46,-6.77,-23.38,14.79,-8.35,43.95,2
0.11,0.08,-1.01,-5.98,3.30,-17.64,16.38,-7.58,43.85,2
0.07,-0.00,-0.97,-12.51,4.03,-24.11,17.50,-7.70,44.67,2
0.07,0.01,-1.02,-11.84,3.66,-41.93,17.21,-6.99,44.10,2
0.11,0.00,-1.05,-6.59,5.31,-28.56,18.74,-4.71,44.08,2
0.08,-0.09,-0.99,-5.13,7.57,-11.72,20.10,-3.59,45.45,2
0.05,-0.05,-1.01,-7.26,12.94,-10.19,19.43,-2.75,44.09,2
0.01,-0.03,-0.98,10.93,12.39,11.35,18.70,-2.40,44.75,2
0.01,-0.05,-0.99,6.41,2.99,6.71,17.22,-4.13,45.34,2
0.01,-0.02,-1.01,2.93,-23.50,-7.51,17.48,-4.68,45.32,2
0.05,0.00,-1.04,-4.88,-12.27,-6.65,18.20,-4.48,45.10,2
0.07,-0.05,-1.00,0.31,-13.43,-6.47,19.80,-3.63,45.59,2
0.08,-0.00,-1.03,-0.61,3.05,-3.54,21.11,-4.68,43.38,2
0.08,-0.02,-0.99,0.55,-3.05,-5.55,20.84,-5.00,43.27,2
0.12,-0.03,-1.01,1.16,-13.55,-12.94,21.77,-4.17,43.54,2
0.11,0.01,-1.02,9.16,-11.66,-5.13,23.56,-3.54,43.36,2
0.11,-0.01,-0.97,2.08,-1.53,-2.81,24.06,-4.24,41.82,2
0.15,-0.01,-1.00,5.49,-2.62,-2.87,24.23,-4.09,42.15,2
0.13,-0.02,-1.00,4.88,-0.31,-0.61,24.68,-4.28,41.96,2
0.15,-0.00,-0.99,-1.04,4.82,-3.97,24.73,-3.98,41.99,2
0.12,0.00,-0.97,3.48,-1.59,-3.11,23.62,-3.82,42.10,2
0.15,-0.02,-1.01,-12.15,-3.60,-7.75,25.24,-3.61,41.77,2
0.11,-0.05,-0.97,4.70,10.38,-9.40,24.82,-3.37,42.29,2
0.09,-0.00,-1.02,14.34,26.31,0.43,24.19,-3.21,42.11,2
0.09,0.04,-1.02,-2.14,-8.24,-1.40,23.28,-3.38,44.91,2
0.09,0.01,-1.00,0.31,-10.07,-2.14,23.93,-4.15,43.14,2
0.10,0.00,-1.03,-4.09,-1.34,-5.00,24.52,-3.93,41.77,2
0.06,0.01,-1.00,1.95,4.70,0.98,23.66,-3.74,43.46,2
-0.01,0.04,-0.99,-6.35,0.73,-10.99,23.24,-4.90,44.02,2
0.09,0.02,-1.03,-2.26,4.94,-10.86,23.60,-3.21,43.47,2
0.06,-0.01,-0.99,-2.62,13.31,-14.77,24.02,-2.34,43.68,2
0.08,0.01,-0.99,10.86,-18.68,-15.56,23.62,-2.32,43.81,2
0.10,0.03,-1.00,7.14,-8.73,-11.78,25.46,-2.36,43.08,2
0.09,0.03,-1.03,2.01,1.53,-14.83,26.62,-1.78,42.61,2
0.08,-0.01,-1.01,-5.98,0.43,-15.81,27.27,-1.51,42.47,2
0.07,0.00,-0.99,-2.50,2.62,-12.08,27.01,-0.92,42.52,2
0.06,0.01,-1.01,8.42,5.98,-2.62,27.25,-0.76,42.72,2
0.07,0.06,-1.02,0.12,1.65,-2.14,26.76,-1.20,43.35,2
0.00,0.01,-0.98,-3.66,1.65,-15.20,26.67,-1.09,42.90,2
0.05,0.03,-1.01,-1.53,-8.24,-8.79,27.22,-0.49,43.41,2
0.08,0.01,-1.02,-1.10,-4.82,-7.32,28.36,-0.33,44.32,2
0.06,0.03,-1.01,-4.70,-1.59,-6.29,28.20,0.15,42.79,2
0.05,-0.00,-1.00,-4.88,-1.83,-10.44,28.76,0.59,43.12,2
0.06,0.03,-1.01,0.06,4.76,-8.61,28.19,0.83,43.43,2
0.06,0.02,-0.99,1.10,-2.14,-12.27,28.34,2.14,43.59,2
0.08,0.00,-1.01,0.12,-6.35,-8.79,29.52,2.84,43.55,2
0.08,0.01,-1.01,-1.28,1.53,-6.23,28.71,2.83,42.94,2
0.09,-0.02,-1.02,-6.10,5.07,11.23,28.82,3.78,43.47,2
0.07,-0.02,-1.02,-13.73,-2.87,26.43,28.39,4.09,43.37,2
0.05,-0.01,-1.05,9.64,23.50,23.01,27.08,2.20,44.81,2
0.06,-0.02,-1.00,-7.87,-8.00,-16.42,26.45,1.72,44.13,2
0.04,-0.00,-0.99,5.07,4.82,-12.33,27.89,3.45,44.04,2
0.08,0.00,-0.99,-1.04,-13.85,-18.19,27.83,3.80,43.44,2
0.07,-0.06,-0.95,0.18,-6.29,-19.78,28.81,4.57,43.48,2
0.08,-0.04,-1.02,3.72,1.83,-18.80,29.54,5.40,44.06,2
0.07,0.03,-1.07,14.40,16.17,-16.60,29.38,5.88,43.76,2
0.03,-0.04,-0.99,-5.62,-3.36,-23.19,29.55,6.97,44.21,2
0.06,-0.04,-1.02,0.98,2.20,-15.50,30.13,8.18,43.70,2
0.06,-0.04,-0.99,-3.54,-7.14,-7.57,29.31,9.03,44.03,2
0.07,-0.05,-1.01,5.13,4.09,-2.87,29.03,9.68,44.26,2
0.01,0.02,-1.02,-1.59,6.59,-2.44,28.82,9.50,45.35,2
0.08,-0.03,-0.99,0.49,6.71,-13.73,28.63,10.17,45.94,2
0.05,-0.02,-1.01,-2.50,2.26,-6.59,29.27,10.07,45.03,2
0.03,-0.03,-1.00,2.38,-1.59,-1.77,28.63,10.97,45.64,2
0.02,-0.02,-0.97,-1.22,-1.46,-8.12,28.19,11.52,45.08,2
-0.05,-0.03,-1.01,-4.03,4.82,-9.03,27.91,11.62,44.92,2
-0.01,-0.04,-1.02,-0.18,-6.23,-8.73,27.39,12.50,46.77,2
0.06,-0.02,-1.00,-8.00,-16.30,-6.47,27.77,12.65,45.90,2
-0.00,-0.05,-1.03,-6.53,-19.53,-33.45,29.54,14.98,44.26,2
0.01,-0.04,-1.04,-5.43,-1.28,-18.19,30.20,16.33,44.06,2
0.09,-0.07,-1.03,-2.69,-12.76,-25.45,29.44,18.15,42.71,2
0.02,-0.07,-0.99,6.77,-7.69,-35.83,30.25,19.68,41.76,2
0.13,-0.03,-1.05,3.36,-6.16,-36.13,29.72,21.30,40.55,2
0.14,-0.08,-1.03,-16.17,-22.09,-20.57,29.43,21.83,41.59,2
0.07,-0.09,-1.01,-8.36,-1.65,-3.23,30.35,23.75,40.66,2
-0.00,-0.17,-0.97,8.24,22.28,-10.50,27.34,24.54,41.53,2
0.07,-0.09,-0.88,-0.18,6.90,-22.77,26.05,25.17,40.99,2
0.10,-0.07,-0.89,-0.18,-25.02,-33.26,25.72,26.45,41.63,2
0.14,-0.13,-1.00,14.22,17.15,-35.03,25.90,28.09,40.54,2
0.06,-0.07,-1.01,19.78,19.35,-20.94,23.82,28.10,42.37,2
0.04,-0.07,-1.06,32.53,-13.85,-10.62,23.47,27.23,41.91,2
0.06,-0.04,-1.02,-3.11,-0.18,10.56,23.29,26.97,42.26,2
0.04,0.03,-0.98,3.85,-2.44,-19.53,23.73,26.12,42.31,2
0.02,-0.01,-1.00,8.06,38.51,-27.22,21.34,27.48,42.50,2
-0.00,-0.01,-1.02,-3.36,11.41,-5.49,20.08,28.05,43.64,2
-0.03,0.01,-1.10,5.98,-2.26,-2.56,19.56,28.33,45.31,2
0.03,-0.04,-1.07,0.98,-24.72,-13.79,20.52,28.26,43.69,2
-0.00,-0.02,-1.04,4.58,-11.29,-1.95,21.39,28.59,41.81,2
-0.01,0.05,-0.97,7.39,2.69,0.49,21.75,27.29,41.59,2
0.02,0.04,-0.91,-0.55,5.43,-1.40,21.25,28.26,41.93,2
0.02,0.01,-0.93,11.41,6.96,-5.31,20.59,28.22,43.86,2
-0.06,0.07,-0.98,9.16,-7.63,-2.50,19.68,26.79,43.42,2
-0.04,0.01,-1.09,27.04,25.15,-56.15,18.25,25.85,44.64,2
-0.02,0.08,-0.99,-1.34,-4.21,-35.03,17.33,27.28,45.24,2
0.03,0.06,-0.98,-15.14,-0.67,-6.59,17.20,28.03,46.12,2
-0.02,0.01,-1.03,-46.75,2.08,27.40,18.79,30.21,45.45,2
-0.04,0.06,-1.05,-3.85,6.04,36.87,18.84,31.21,44.13,2
-0.13,-0.03,-0.97,-0.85,17.03,13.67,19.23,30.11,44.68,2
-0.04,-0.03,-0.97,-4.70,-1.28,18.07,17.81,30.27,44.79,2
-0.03,-0.04,-0.97,0.12,6.65,10.86,18.87,29.83,45.50,2
-0.11,-0.05,-0.99,-5.86,0.67,13.49,18.87,29.96,46.02,2
-0.10,-0.04,-1.01,17.76,3.97,2.93,19.41,29.81,46.47,2
-0.09,-0.03,-1.07,-3.23,-1.65,1.53,18.01,28.69,47.40,2
-0.10,-0.05,-1.01,-24.54,-5.37,7.39,18.54,29.76,46.46,2
-0.11,-0.10,-0.93,-3.72,28.50,-3.72,19.25,30.73,48.05,2
-0.19,-0.03,-0.95,25.33,5.43,-22.03,16.53,30.40,48.00,2
-0.14,-0.03,-1.04,-10.74,7.75,-9.34,15.27,28.75,50.16,2
-0.16,-0.07,-0.99,-13.73,1.34,17.88,14.93,29.43,49.99,2
-0.14,-0.05,-1.00,-2.62,-1.28,10.38,14.73,29.85,49.72,2
-0.15,-0.04,-1.03,8.12,-10.25,8.00,14.62,28.66,51.37,2
