Acc_X,Acc_Y,Acc_Z,Gyr_X,Gyr_Y,Gyr_Z,Mag_X,Mag_Y,Mag_Z,Posture
0.11,1.00,0.17,2.20,4.94,6.71,24.71,-25.27,-3.63,3
0.10,0.95,0.08,-9.58,1.65,-0.85,25.29,-25.56,-3.19,3
0.11,1.00,0.11,5.31,-10.93,-5.25,25.49,-25.44,-2.64,3
0.06,0.88,0.19,14.77,-28.20,-3.23,25.95,-24.63,-5.60,3
0.07,0.96,0.14,1.16,-25.09,-7.08,26.43,-24.65,-6.46,3
0.11,0.99,0.20,5.43,-21.97,-0.61,25.93,-24.94,-7.70,3
0.11,0.96,0.17,-0.31,-29.60,-1.65,25.55,-23.75,-8.57,3
0.11,0.96,0.19,-4.15,-15.93,-2.14,24.62,-23.96,-9.14,3
0.09,0.96,0.21,-5.55,-13.55,-2.50,24.37,-24.05,-9.55,3
0.10,0.99,0.17,-6.96,-3.60,0.12,24.67,-24.19,-11.16,3
0.09,0.98,0.16,-5.25,-7.93,0.85,24.46,-24.18,-9.81,3
0.09,0.98,0.16,-5.68,-10.25,0.00,24.68,-24.55,-10.41,3
0.09,0.99,0.16,-2.44,-1.40,0.43,24.35,-24.55,-9.27,3
0.08,0.91,0.18,-3.36,2.38,1.22,24.29,-24.73,-8.65,3
0.08,0.96,0.16,-0.43,6.35,0.24,24.26,-24.96,-8.46,3
0.09,0.98,0.11,-12.08,10.38,2.81,24.17,-24.60,-8.69,3
0.08,0.98,0.13,-0.61,2.81,-0.55,24.02,-25.38,-7.63,3
0.09,0.99,0.13,2.44,0.43,0.31,24.23,-25.15,-8.42,3
0.10,0.99,0.14,2.99,-0.37,1.65,24.35,-24.93,-8.76,3
0.09,0.98,0.14,-0.43,4.52,0.92,24.26,-25.04,-7.08,3
0.09,0.97,0.15,1.34,3.60,-0.24,24.10,-25.10,-7.02,3
0.08,0.98,0.14,-0.73,4.76,0.00,24.65,-24.35,-7.91,3
0.08,0.98,0.15,-4.39,7.87,-0.06,24.05,-25.07,-6.75,3
0.09,0.99,0.12,-4.03,5.68,0.92,24.24,-25.15,-7.81,3
0.09,0.99,0.13,-0.06,2.56,0.37,24.41,-24.74,-7.70,3
0.09,0.98,0.11,-2.01,6.23,0.55,24.79,-25.61,-7.41,3
0.09,0.98,0.13,0.43,9.03,4.09,23.97,-25.38,-5.87,3
0.09,0.98,0.12,-3.54,11.35,5.86,24.21,-24.33,-5.86,3
0.07,0.96,0.13,4.33,12.33,4.46,23.80,-25.04,-6.45,3
0.06,0.99,0.10,-2.87,6.71,3.42,23.72,-25.22,-4.83,3
0.07,0.99,0.12,1.77,7.02,0.79,23.89,-25.27,-4.13,3
0.05,0.98,0.13,5.68,3.30,0.73,23.73,-24.67,-4.27,3
0.07,1.00,0.13,-4.09,13.55,3.78,23.28,-25.27,-3.17,3
0.05,0.96,0.13,-6.23,16.36,4.64,23.43,-25.28,-4.69,3
0.06,0.95,0.10,-6.77,17.88,5.37,23.27,-25.74,-1.03,3
0.04,0.99,0.07,-2.75,6.35,1.10,23.18,-25.83,0.00,3
0.04,1.01,0.07,-3.11,10.93,4.88,23.08,-25.57,-0.98,3
0.03,1.00,0.10,-2.81,10.19,2.69,22.55,-26.06,1.84,3
0.03,1.00,0.07,-2.20,18.19,7.45,21.91,-25.95,1.66,3
0.01,0.97,0.09,-1.16,7.69,2.56,22.57,-26.79,2.61,3
0.03,0.98,0.10,4.09,2.50,-1.46,22.38,-26.33,3.14,3
0.03,0.97,0.10,3.11,4.33,-1.40,22.45,-26.27,2.54,3
0.03,0.98,0.09,3.60,2.50,-4.46,23.00,-25.99,2.26,3
0.03,1.00,0.10,-2.87,5.86,0.37,22.52,-26.27,2.64,3
0.03,0.98,0.10,-0.49,2.56,-1.16,22.74,-25.90,2.48,3
0.06,0.98,0.11,-2.93,8.42,-0.73,22.77,-26.09,3.71,3
0.03,0.96,0.09,-3.72,6.65,-0.24,22.78,-25.76,3.59,3
0.05,0.99,0.09,-0.31,2.14,-3.60,23.11,-25.89,3.80,3
0.07,0.99,0.09,0.06,2.87,-0.85,23.47,-26.07,4.70,3
0.06,0.98,0.10,0.18,5.68,3.17,24.05,-26.18,3.94,3
0.05,1.00,0.08,1.34,5.31,0.06,23.83,-25.79,4.69,3
0.04,0.96,0.10,2.20,3.54,-0.61,23.77,-26.03,5.08,3
0.06,0.97,0.11,-0.06,-0.06,-2.01,23.28,-25.27,4.97,3
0.06,1.00,0.08,1.34,-15.14,-10.44,23.44,-25.76,3.88,3
0.08,0.98,0.11,0.12,-22.95,-7.39,25.12,-25.27,3.72,3
0.09,0.99,0.13,3.23,-12.76,-2.81,25.17,-25.63,2.21,3
0.08,0.97,0.14,-2.32,8.97,7.45,25.63,-25.43,2.36,3
0.06,0.99,0.11,2.14,17.88,5.62,24.29,-25.70,3.12,3
0.05,0.96,0.11,2.38,2.93,-2.32,24.16,-25.56,3.03,3
0.06,0.97,0.11,1.83,-5.13,-6.59,24.16,-25.16,3.88,3
0.08,0.99,0.11,-0.55,-20.26,-6.47,25.28,-25.29,2.93,3
0.09,0.99,0.13,0.24,-21.67,-4.64,25.33,-24.73,1.64,3
0.08,0.97,0.15,-0.18,-18.80,-2.81,25.56,-25.57,0.93,3
0.09,1.00,0.11,0.49,-11.41,-1.10,25.50,-25.15,0.27,3
0.09,0.97,0.12,1.59,0.98,-1.16,25.32,-25.40,-0.11,3
0.09,0.97,0.15,1.65,6.16,2.38,25.57,-25.18,-0.81,3
0.07,0.98,0.14,-0.79,28.56,10.31,25.33,-24.84,-0.55,3
0.07,0.97,0.14,4.03,16.78,0.67,24.65,-25.15,1.21,3
0.07,0.99,0.13,1.40,6.16,0.61,25.05,-25.02,1.78,3
0.06,0.98,0.14,1.28,6.84,-1.04,24.11,-25.40,2.20,3
0.09,0.99,0.17,-0.73,14.16,-2.50,24.60,-25.55,2.55,3
0.08,0.98,0.13,-6.04,10.93,-1.22,24.65,-25.46,3.75,3
0.07,0.99,0.11,-0.37,11.29,2.14,24.24,-25.15,3.88,3
0.07,0.97,0.11,7.51,10.56,1.83,24.72,-25.43,4.71,3
0.09,0.97,0.17,8.00,11.35,2.01,24.39,-25.01,5.04,3
0.06,0.98,0.14,0.73,8.85,5.80,24.07,-25.62,5.00,3
0.06,0.96,0.16,-0.12,23.38,5.43,23.69,-25.67,4.32,3
0.06,0.97,0.16,2.01,24.11,-0.61,23.01,-26.22,6.45,3
0.08,1.00,0.14,-7.14,31.07,5.37,22.61,-26.12,7.17,3
0.04,0.96,0.13,-0.24,18.49,3.91,22.16,-26.60,7.39,3
0.05,1.01,0.12,-1.16,8.18,2.01,21.11,-26.54,9.19,3
0.07,1.00,0.12,-14.89,16.11,19.78,20.80,-27.10,9.17,3
0.02,0.96,0.11,-7.93,20.51,10.38,20.43,-27.36,9.06,3
0.02,0.99,0.08,1.83,21.73,-7.20,19.89,-26.92,11.90,3
0.03,1.00,0.06,-16.24,35.22,11.11,19.24,-26.53,11.45,3
0.02,0.97,0.06,2.81,24.23,-2.08,19.09,-26.55,13.87,3
0.02,0.99,0.07,2.08,35.10,12.15,18.33,-26.93,15.39,3
0.01,0.98,0.09,2.50,25.82,7.87,16.25,-27.16,15.12,3
-0.00,0.96,0.07,-10.68,26.18,15.87,14.92,-26.98,15.47,3
0.00,1.05,0.04,-9.89,18.31,-0.67,13.15,-27.04,16.56,3
-0.01,1.01,0.03,-2.56,13.12,-4.70,13.70,-27.26,16.80,3
0.00,1.00,0.04,3.60,10.50,-6.41,13.76,-26.57,17.79,3
0.02,1.00,0.04,4.15,13.55,-2.14,14.16,-26.49,17.00,3
0.03,1.00,0.06,3.23,11.72,-4.27,13.73,-26.87,18.20,3
0.04,0.97,0.07,-0.18,14.89,-7.02,13.70,-26.86,17.07,3
0.01,0.97,0.05,-7.63,2.26,1.59,13.78,-26.46,17.37,3
0.04,1.00,0.03,-4.94,-2.08,4.58,13.44,-26.48,20.03,3
-0.01,1.02,0.01,-2.50,-2.44,2.50,12.90,-27.04,17.98,3
0.03,0.99,0.03,4.39,24.48,4.33,12.66,-26.45,19.56,3
-0.01,0.99,0.03,0.73,15.56,-1.95,11.88,-26.76,18.71,3
0.04,0.97,0.05,0.43,23.38,3.05,12.00,-26.60,18.57,3
-0.00,1.02,0.00,-1.83,39.55,-3.72,11.13,-26.49,20.50,3
0.09,1.00,0.03,-0.37,29.79,-21.18,10.63,-26.86,19.43,3
0.13,1.00,0.03,-4.82,13.31,-12.33,12.83,-26.77,19.84,3
0.12,0.99,-0.01,-7.69,-4.76,2.20,13.78,-26.43,21.17,3
0.07,0.99,0.00,0.24,6.77,5.31,12.74,-26.11,21.19,3
0.12,1.01,0.02,7.08,20.75,-6.29,13.34,-25.83,20.84,3
0.13,0.98,0.02,-1.28,12.63,4.88,13.11,-26.39,21.91,3
0.08,0.99,0.00,4.64,17.82,6.04,11.23,-26.10,23.05,3
0.08,0.94,0.02,-5.62,17.15,5.37,10.30,-25.74,21.80,3
0.06,0.99,0.03,2.14,21.36,-7.57,9.95,-26.04,23.36,3
0.11,0.99,0.03,-7.26,23.68,-1.10,9.84,-26.21,23.43,3
0.14,1.03,0.01,2.75,8.42,-1.10,9.58,-25.99,23.14,3
0.11,0.98,0.01,-1.65,3.17,1.04,8.63,-26.22,23.11,3
-0.01,0.98,-0.01,0.85,2.44,21.97,8.22,-25.96,24.96,3
0.07,0.92,0.06,3.91,8.91,-9.28,7.53,-25.98,22.33,3
0.03,1.03,-0.01,-3.48,-3.72,7.14,7.95,-26.49,22.64,3
0.04,0.98,0.02,3.60,-16.17,0.24,7.37,-26.35,24.61,3
0.06,0.98,0.07,-0.49,-9.34,-10.19,7.31,-26.81,22.97,3
0.07,0.99,0.14,10.38,16.48,2.26,8.62,-26.99,23.22,3
0.06,1.00,-0.01,-11.54,40.41,-4.39,6.96,-26.90,22.53,3
0.12,0.98,-0.00,-5.86,13.18,-11.90,6.71,-26.42,23.01,3
0.09,1.01,0.01,2.14,-8.24,2.69,6.67,-26.11,23.44,3
0.09,0.98,0.04,5.98,5.92,4.70,6.64,-27.06,22.63,3
0.13,1.01,-0.02,0.49,24.60,2.81,5.90,-25.98,23.38,3
0.05,0.96,0.05,3.78,16.85,-0.06,5.13,-26.61,20.92,3
0.08,1.02,-0.07,-6.47,15.75,1.40,4.81,-26.51,23.38,3
0.07,1.00,0.04,0.98,8.42,-0.85,3.42,-26.76,23.97,3
0.11,0.99,0.03,3.91,14.53,1.34,3.26,-26.84,22.63,3
0.06,0.99,0.03,0.31,21.55,-0.24,2.78,-27.14,22.38,3
0.06,0.98,0.03,2.08,15.20,2.44,2.01,-26.61,23.10,3
0.05,0.98,0.04,0.00,10.50,0.31,1.12,-26.92,23.22,3
0.05,0.98,0.05,0.06,19.17,-1.46,0.79,-26.82,22.24,3
0.05,0.98,0.05,1.71,18.13,-2.50,0.63,-27.03,22.68,3
0.05,1.01,0.01,-1.16,6.47,-0.06,0.04,-27.04,21.91,3
0.07,1.00,0.01,-4.15,4.21,0.55,-0.27,-26.98,21.83,3
0.07,0.98,0.02,-3.30,3.91,15.01,-0.38,-25.96,22.39,3
0.05,1.00,0.02,-5.49,32.90,0.79,-0.49,-26.38,22.24,3
0.07,1.00,0.01,2.44,17.52,2.56,-1.62,-26.88,23.41,3
0.05,0.99,0.02,1.10,2.26,-1.77,-2.04,-26.68,22.22,3
0.07,0.99,0.02,0.92,-1.46,0.12,-2.28,-26.68,23.77,3
0.06,1.00,0.02,-2.01,-3.60,3.05,-2.26,-26.56,23.18,3
0.07,0.98,0.00,-4.52,-16.78,-0.92,-2.45,-26.55,23.66,3
0.06,0.98,0.02,-0.24,-37.05,1.16,-1.35,-26.04,24.34,3
0.04,1.00,0.02,-0.43,-20.81,-0.24,-0.71,-26.98,24.02,3
0.04,0.99,0.03,1.04,2.26,2.32,-0.37,-26.90,22.52,3
0.06,0.98,0.00,-1.77,3.23,-3.30,-0.70,-26.82,24.23,3
0.05,1.00,0.00,-0.24,10.44,0.00,-0.43,-26.49,23.78,3
0.04,0.98,0.01,-1.04,12.70,-3.17,-0.98,-26.09,23.54,3
0.06,0.99,0.02,-0.24,7.45,-1.71,-1.04,-26.39,22.91,3
0.07,0.98,0.01,-1.22,8.30,-2.69,-1.22,-26.37,23.01,3
0.06,0.97,0.01,-2.99,-2.20,-6.53,-1.31,-26.37,23.02,3
0.07,1.00,0.00,2.44,-8.61,-4.03,-1.01,-26.57,24.17,3
0.10,1.00,0.01,0.18,-20.69,-4.09,0.31,-26.68,23.58,3
0.10,0.98,0.00,-1.10,-0.24,0.43,1.14,-26.16,24.32,3
0.09,0.98,0.00,0.31,-8.91,1.77,0.70,-27.09,23.29,3
0.07,0.99,0.01,3.54,-23.56,2.14,1.93,-26.03,22.99,3
0.09,0.99,0.02,0.92,-14.71,3.48,1.45,-26.21,22.92,3
0.08,0.97,0.02,-2.08,9.28,2.81,1.95,-26.59,23.13,3
0.08,0.99,0.02,-0.67,18.37,-1.46,0.73,-26.18,23.72,3
0.07,0.99,0.02,-0.06,17.52,6.71,0.43,-26.44,23.27,3
0.06,0.99,0.01,-0.55,11.96,0.85,-0.81,-26.86,22.51,3
0.06,1.01,0.02,1.04,5.00,-0.55,-1.45,-26.59,21.90,3
0.06,0.99,0.02,2.56,-0.55,2.81,-1.62,-26.44,23.12,3
0.06,0.99,0.02,2.75,-2.56,-0.85,-1.57,-25.84,23.65,3
0.05,1.00,0.03,-2.38,-0.06,-4.21,-1.16,-27.12,21.12,3
0.08,0.99,0.04,1.95,-3.30,-0.18,-0.46,-26.35,22.02,3
0.12,0.97,0.00,-2.32,-6.47,-9.64,-0.81,-26.56,22.53,3
0.05,0.99,0.06,2.81,-31.49,3.91,0.52,-26.67,23.02,3
0.06,0.99,0.03,-2.81,-37.41,8.54,1.40,-26.51,21.74,3
0.01,0.93,0.03,0.31,-40.16,12.76,1.53,-27.27,22.35,3
0.02,0.98,0.06,-5.43,-55.05,6.29,2.20,-26.73,23.25,3
0.01,1.04,0.00,-11.23,-62.07,-1.34,3.27,-25.92,23.29,3
0.06,0.95,0.04,-3.78,-51.51,4.58,5.07,-26.75,22.61,3
-0.02,1.00,-0.01,-1.34,-5.80,1.34,4.15,-25.42,23.93,3
0.02,1.05,-0.03,-7.26,-44.19,3.36,4.96,-25.51,24.17,3
-0.00,0.95,-0.05,-9.58,-34.97,-23.74,5.60,-26.06,23.62,3
0.03,1.00,-0.06,9.03,-8.36,18.31,7.45,-25.89,22.22,3
0.01,0.98,-0.06,10.68,-6.04,0.85,6.62,-26.56,21.07,3
-0.01,0.96,0.01,0.73,-18.62,-1.77,7.39,-26.45,20.78,3
-0.03,1.01,-0.03,-3.72,-36.93,0.24,7.42,-26.51,20.68,3
-0.05,0.97,0.02,-11.90,-55.60,9.77,8.13,-26.68,20.01,3
-0.04,1.00,-0.04,-6.96,-41.02,8.97,9.17,-26.62,20.42,3
-0.05,0.97,-0.08,-5.00,-37.41,-0.43,9.30,-26.54,20.79,3
-0.00,0.98,-0.04,8.73,-41.32,9.40,10.24,-26.76,19.24,3
0.01,1.01,-0.02,-4.15,-39.73,-12.21,10.80,-27.03,18.40,3
0.03,0.98,-0.04,3.42,-17.82,-7.93,12.72,-26.94,18.40,3
0.02,0.99,-0.03,6.84,-22.52,-12.27,12.79,-27.67,16.72,3
0.06,0.97,0.01,9.58,-25.21,-12.82,14.89,-27.06,16.53,3
0.04,0.99,-0.03,1.46,-25.76,-1.59,16.82,-27.01,15.31,3
0.01,1.00,-0.02,3.91,-21.67,3.42,17.40,-26.82,13.46,3
0.08,1.00,0.05,16.48,-38.94,-3.66,17.35,-27.33,13.37,3
0.01,0.99,0.06,-0.12,-25.94,6.59,19.01,-27.69,9.92,3
0.03,0.92,0.11,8.73,0.67,0.43,18.43,-27.55,11.30,3
0.03,0.95,0.10,4.27,32.53,-8.97,18.47,-27.27,9.52,3
0.11,0.96,0.13,1.83,82.40,-6.84,18.99,-26.89,11.12,3
0.09,0.97,0.09,9.22,40.16,-13.67,17.22,-27.42,13.55,3
0.05,1.06,0.05,5.07,60.12,-11.17,18.07,-27.11,13.66,3
0.26,0.90,0.08,5.55,86.24,-49.07,18.60,-26.76,15.87,3
0.13,1.00,0.08,21.79,74.95,23.25,17.86,-26.72,16.25,3
0.13,0.95,0.17,2.01,82.21,26.06,14.11,-27.39,17.55,3
-0.01,1.09,-0.09,-14.65,101.50,27.28,8.62,-27.01,18.81,3
0.04,0.99,0.06,-24.17,130.25,-15.14,4.77,-26.44,20.41,3
0.13,0.94,-0.03,0.18,71.41,-16.54,3.48,-26.66,22.29,3
0.11,0.93,0.05,24.90,32.59,10.13,2.58,-26.64,21.51,3
0.12,0.96,0.06,16.17,26.55,-5.55,1.17,-27.69,17.88,3
0.13,0.97,0.06,9.09,29.36,-2.26,0.18,-27.67,17.92,3
0.14,0.97,0.06,-2.32,21.67,-1.40,0.26,-28.09,18.82,3
0.16,1.01,0.05,1.65,1.65,2.32,-0.61,-27.81,18.55,3
0.12,0.99,0.05,-13.43,-31.25,9.40,-1.10,-27.82,18.90,3
0.07,0.96,0.12,10.01,-41.32,13.92,-0.24,-27.26,19.35,3
0.08,0.99,0.07,5.86,76.29,-3.11,-0.89,-27.04,18.35,3
0.11,0.95,0.05,-14.47,58.04,3.91,-3.17,-27.43,18.52,3
0.12,0.98,-0.00,-10.93,26.00,-3.48,-3.74,-26.98,18.07,3
0.09,0.99,0.03,5.25,3.72,11.60,-4.93,-26.94,19.34,3
0.05,1.05,-0.07,-37.84,62.81,15.50,-5.36,-26.03,19.17,3
0.01,1.05,-0.06,24.54,38.51,13.12,-9.92,-25.38,20.54,3
0.04,1.01,-0.04,11.35,48.65,-4.70,-10.47,-26.56,19.17,3
0.06,0.99,0.00,2.75,44.56,-0.12,-11.71,-25.92,16.26,3
0.04,0.96,0.00,-3.36,42.11,1.22,-12.35,-26.42,14.99,3
0.11,1.05,0.01,28.38,31.07,2.14,-12.90,-26.38,15.25,3
-0.02,0.98,-0.02,-3.42,14.40,8.91,-14.42,-26.64,13.24,3
0.00,1.01,-0.03,8.36,7.20,-28.02,-14.50,-26.14,12.21,3
0.10,1.06,-0.05,0.85,18.31,-6.71,-12.39,-27.66,13.02,3
0.16,0.95,0.00,-0.61,35.34,-15.99,-11.98,-27.59,10.95,3
0.17,0.99,-0.01,4.03,21.30,2.26,-11.99,-27.54,9.11,3
0.15,0.97,0.01,6.23,42.60,26.06,-12.34,-27.54,8.90,3
-0.01,0.92,0.08,-2.32,8.91,25.39,-15.03,-26.95,7.32,3
0.04,1.06,-0.01,-5.31,26.25,-2.99,-15.36,-26.48,7.10,3
0.01,1.03,0.01,6.35,28.26,6.04,-16.13,-26.71,6.38,3
0.02,1.00,0.00,-2.26,26.12,-10.13,-16.14,-25.96,6.38,3
0.07,0.97,0.02,-19.10,35.52,-12.08,-14.56,-26.93,5.37,3
0.07,0.94,-0.01,-9.83,24.48,-6.29,-12.96,-27.45,5.13,3
0.09,0.99,-0.07,-8.18,22.16,-12.94,-12.83,-27.73,3.98,3
0.14,0.96,-0.06,3.36,15.26,-3.36,-12.32,-27.70,5.26,3
0.07,1.00,-0.05,1.77,19.96,4.76,-11.61,-27.58,3.98,3
0.15,1.01,-0.07,-1.89,14.22,-8.79,-11.27,-28.12,3.74,3
0.13,1.01,-0.05,6.71,14.89,0.55,-11.34,-28.11,3.28,3
0.12,0.99,-0.07,4.64,11.47,1.10,-12.39,-27.92,3.17,3
0.14,0.97,-0.09,1.22,11.78,-9.22,-11.58,-26.84,1.21,3
0.15,0.98,-0.07,1.53,2.62,0.85,-11.61,-28.12,1.88,3
0.11,0.97,-0.01,5.62,1.83,9.58,-11.93,-26.82,0.17,3
0.10,0.98,-0.02,-0.43,1.89,3.42,-12.27,-27.11,0.40,3
0.11,0.98,-0.04,-5.49,2.56,2.93,-12.78,-27.25,0.67,3
0.09,0.97,-0.02,2.87,-8.79,2.50,-13.13,-26.76,1.50,3
0.09,0.99,-0.04,4.39,-8.36,7.81,-13.71,-26.28,1.16,3
0.07,1.01,-0.00,5.55,-13.61,1.22,-14.20,-26.34,1.14,3
0.07,0.97,0.01,0.18,-12.21,-4.76,-14.50,-26.20,0.98,3
0.06,0.98,-0.00,0.18,-16.05,10.19,-14.48,-26.93,1.66,3
0.06,1.00,-0.01,-1.71,-11.11,6.16,-15.06,-26.10,1.55,3
0.03,1.00,-0.01,-0.85,-4.33,1.16,-15.49,-26.37,1.78,3
0.04,0.98,0.00,-2.20,-0.06,-1.59,-15.81,-26.37,0.40,3
0.05,0.98,-0.02,-3.97,-0.43,-3.72,-15.45,-26.06,1.87,3
0.06,1.00,-0.01,-2.32,0.85,-1.83,-15.34,-26.18,3.44,3
0.05,1.00,-0.01,-2.99,2.81,2.01,-14.88,-26.39,2.93,3
0.06,0.98,-0.02,-0.49,-9.83,-2.75,-14.98,-26.49,2.06,3
0.06,0.97,-0.02,-1.77,-21.67,3.97,-15.00,-26.61,4.16,3
0.05,0.96,-0.03,-6.35,-19.10,7.75,-16.16,-25.65,5.42,3
0.07,1.01,-0.05,-5.98,-17.76,0.92,-16.13,-25.95,4.32,3
0.05,1.02,-0.06,1.95,-20.32,1.95,-16.04,-25.42,6.34,3
-0.00,0.98,-0.03,7.20,-23.01,12.76,-17.00,-25.55,6.80,3
-0.03,0.98,-0.01,2.87,-11.23,7.93,-17.54,-25.20,6.92,3
0.04,1.01,-0.03,2.44,-16.36,-4.76,-16.94,-25.07,6.92,3
0.03,0.98,-0.02,14.22,-10.07,9.34,-17.41,-24.69,6.64,3
-0.03,0.97,0.03,14.89,-10.68,9.83,-18.48,-24.02,5.41,3
-0.05,0.96,0.03,-10.31,-9.83,-9.46,-18.52,-24.33,4.97,3
-0.00,0.99,0.02,-6.29,-13.85,-14.04,-16.44,-24.74,6.30,3
0.01,1.01,0.02,3.42,-16.97,-5.00,-16.16,-25.27,6.64,3
0.06,0.99,0.03,1.10,-21.42,-7.20,-15.17,-24.98,6.73,3
0.01,0.99,-0.00,0.49,-25.70,-0.37,-14.67,-25.37,7.89,3
0.01,0.96,0.02,-3.30,-16.54,14.53,-14.17,-25.43,9.33,3
0.04,0.99,-0.00,-8.00,-24.90,10.19,-14.72,-25.00,8.36,3
-0.03,0.98,0.03,-1.95,-12.94,6.04,-16.66,-24.85,10.34,3
-0.08,0.99,0.00,-2.01,-18.68,3.23,-15.97,-24.71,11.67,3
-0.05,0.96,-0.01,-4.46,-9.89,0.85,-15.10,-25.09,11.87,3
-0.04,0.99,-0.01,-1.89,-10.38,-0.37,-15.76,-24.39,13.13,3
0.01,0.99,-0.01,-2.69,-8.36,-1.34,-15.20,-24.30,13.59,3
-0.04,1.02,-0.03,-7.08,-14.34,-19.53,-14.17,-24.29,13.33,3
0.02,1.04,-0.07,-0.55,-8.00,-2.38,-13.15,-25.09,13.62,3
-0.03,0.97,-0.03,7.81,-11.84,1.71,-12.32,-24.68,13.68,3
0.00,1.02,-0.03,10.99,-28.02,-3.30,-11.58,-24.95,14.32,3
-0.05,0.99,-0.01,16.05,-8.30,1.40,-11.91,-24.84,11.71,3
0.00,0.99,0.02,16.30,-8.24,2.93,-11.63,-25.93,12.13,3
-0.03,0.98,0.15,23.44,-17.76,3.17,-12.05,-25.66,8.81,3
-0.05,0.98,0.08,-19.29,-17.03,12.15,-12.11,-24.90,10.12,3
-0.03,1.01,0.16,-19.59,2.44,12.39,-12.94,-25.23,11.04,3
-0.00,0.98,0.02,-18.13,67.63,-29.91,-14.25,-25.06,11.93,3
-0.01,0.99,-0.01,-2.14,67.26,-12.76,-12.38,-25.90,10.30,3
0.05,0.95,0.00,-2.87,47.61,-1.46,-11.54,-25.95,9.97,3
0.09,1.07,-0.04,-4.09,57.98,-3.97,-12.52,-26.21,8.23,3
0.08,1.05,-0.05,9.83,68.24,-4.58,-12.27,-27.78,5.62,3
0.17,0.99,0.03,16.30,62.32,-8.91,-11.88,-27.01,4.04,3
0.16,0.95,0.08,10.19,52.37,7.57,-12.17,-26.32,-0.11,3
0.07,0.98,0.06,-0.92,46.26,18.19,-12.33,-26.27,-1.05,3
0.05,0.97,0.06,-2.08,73.73,-26.37,-13.07,-26.42,-0.50,3
0.19,1.02,0.03,5.37,39.12,3.60,-10.74,-26.98,-3.66,3
0.03,0.98,0.05,6.53,20.87,30.58,-12.62,-25.72,-5.59,3
0.02,1.01,0.05,8.48,31.80,26.37,-13.45,-24.83,-6.36,3
-0.01,0.99,0.07,-5.80,33.26,21.18,-15.47,-24.34,-8.31,3
-0.11,0.96,0.07,-3.66,34.00,7.51,-16.20,-23.65,-8.42,3
-0.08,0.94,0.08,-15.99,19.23,-1.83,-14.97,-23.72,-8.67,3
-0.14,1.00,0.00,-4.94,32.04,8.48,-14.93,-24.02,-8.36,3
-0.05,1.04,0.00,-12.02,44.74,-1.22,-14.22,-24.49,-9.62,3
-0.03,1.02,-0.04,16.78,20.08,16.78,-14.32,-23.91,-10.30,3
-0.05,0.98,0.05,15.81,26.00,12.45,-14.36,-22.35,-14.89,3
-0.13,0.94,0.09,-2.87,31.68,0.92,-14.87,-21.72,-14.51,3
-0.06,1.01,0.03,-21.12,39.49,-13.92,-12.67,-22.55,-14.42,3
-0.02,0.99,0.02,-1.34,-2.20,3.91,-11.33,-23.21,-15.37,3
-0.12,0.95,0.09,-2.81,10.50,1.95,-12.11,-22.90,-14.26,3
-0.07,1.02,0.05,-6.29,32.35,-8.97,-10.97,-23.06,-15.76,3
-0.05,0.97,0.06,-1.89,23.19,6.10,-9.48,-23.28,-16.50,3
-0.11,1.01,0.01,-4.39,11.17,12.02,-10.19,-23.03,-15.91,3
-0.12,0.95,0.06,6.77,34.12,15.14,-9.74,-22.49,-15.88,3
-0.05,1.01,0.07,-0.24,47.61,1.59,-8.47,-23.06,-18.60,3
-0.13,0.98,-0.03,8.54,18.43,20.20,-6.98,-22.06,-17.99,3
-0.09,0.96,0.07,-10.99,9.40,-3.17,-6.34,-22.56,-18.53,3
-0.15,0.97,0.07,-7.08,13.06,-2.75,-6.42,-22.47,-17.58,3
-0.15,0.97,0.05,0.06,30.82,-1.71,-5.31,-22.92,-17.98,3
-0.11,0.99,0.06,-2.01,23.62,-3.66,-2.76,-23.88,-16.80,3
-0.11,1.00,0.06,-11.35,19.53,-1.28,-1.83,-23.88,-16.92,3
-0.09,0.98,0.05,4.58,24.60,2.20,-1.35,-24.76,-17.27,3
-0.09,0.96,0.07,11.90,17.64,8.18,0.57,-24.07,-17.91,3
-0.13,0.98,0.09,11.47,22.89,14.16,0.89,-23.24,-18.93,3
-0.10,1.00,0.11,7.14,33.69,3.72,0.98,-23.30,-20.76,3
-0.08,0.97,0.10,-6.29,30.40,-9.77,2.01,-23.00,-19.70,3
-0.07,0.96,0.10,7.63,13.18,0.31,3.65,-23.11,-19.63,3
-0.07,0.98,0.11,8.42,14.40,6.84,4.25,-22.49,-17.71,3
-0.09,0.98,0.12,-10.07,3.11,-0.24,4.16,-22.89,-19.43,3
-0.09,0.98,0.10,-14.04,-3.60,0.67,4.65,-23.60,-18.51,3
-0.08,0.97,0.10,-5.25,-3.48,-5.31,4.70,-23.79,-18.48,3
-0.08,1.00,0.09,4.94,-10.07,-10.50,4.97,-23.91,-17.85,3
-0.08,0.97,0.11,-7.32,-21.73,-31.25,6.14,-23.84,-17.72,3
-0.02,1.00,0.07,-0.49,-5.74,-2.87,6.40,-23.61,-17.35,3
0.01,0.98,0.07,-5.74,0.92,-7.26,6.52,-24.18,-17.41,3
-0.01,1.01,0.08,-2.08,6.16,-2.14,7.82,-24.50,-16.31,3
0.01,1.00,0.06,8.24,0.98,5.49,7.47,-24.11,-16.52,3
0.00,0.98,0.06,3.23,6.84,5.37,7.47,-24.30,-18.04,3
-0.02,0.97,0.09,-3.91,2.87,-1.77,7.87,-23.74,-18.19,3
-0.02,0.98,0.07,-1.10,0.00,-1.40,7.57,-23.56,-17.66,3
0.02,0.98,0.07,-1.16,1.89,3.48,8.19,-24.33,-17.35,3
0.02,1.00,0.07,1.40,-0.55,-2.69,8.12,-23.79,-18.15,3
0.02,0.98,0.08,3.54,-9.16,-1.77,7.35,-23.96,-16.43,3
-0.00,0.97,0.07,4.94,-6.16,5.31,7.67,-23.67,-18.38,3
-0.01,0.98,0.08,0.79,-8.67,0.24,6.86,-23.40,-18.68,3
-0.01,0.98,0.08,-3.36,-1.10,-7.39,6.51,-23.86,-18.33,3
0.05,1.02,0.06,-9.70,-5.68,-9.89,6.57,-24.01,-18.82,3
0.02,0.98,0.06,-7.45,-15.20,-5.43,8.17,-24.44,-17.37,3
0.02,1.00,0.05,-4.27,-7.39,0.00,7.81,-24.45,-15.94,3
0.03,0.98,0.03,-0.37,-1.46,-2.01,7.70,-24.93,-17.07,3
0.03,1.00,0.04,-3.05,-3.54,-3.91,7.52,-24.84,-15.93,3
0.04,0.99,0.04,0.43,-7.20,-3.78,7.35,-24.67,-17.08,3
0.05,0.99,0.05,0.31,-8.42,0.00,7.58,-24.23,-15.83,3
0.05,0.99,0.03,-0.98,3.97,-0.31,7.02,-24.57,-16.70,3
0.06,0.99,0.03,0.55,1.10,-0.49,7.82,-24.52,-16.83,3
0.05,0.99,0.05,-0.18,-8.12,-1.04,7.42,-24.52,-15.94,3
0.06,0.99,0.02,4.21,-13.12,-1.28,6.95,-24.84,-16.48,3
0.05,0.97,0.05,5.19,-13.85,0.18,6.01,-24.50,-16.80,3
0.03,0.99,0.06,-2.62,-17.82,-0.55,5.58,-24.30,-17.58,3
0.04,1.00,0.03,-5.98,-14.83,-3.60,5.00,-24.45,-16.81,3
0.05,1.00,0.02,-11.60,-19.53,-12.57,4.94,-24.04,-16.25,3
0.04,0.98,0.06,0.49,-8.97,-1.40,4.48,-25.09,-17.00,3
0.06,1.00,0.03,-5.43,-4.76,-2.01,4.22,-24.58,-16.47,3
0.06,0.99,0.03,0.24,0.37,1.71,4.17,-25.37,-14.93,3
0.06,0.99,0.03,0.18,-5.43,2.32,4.02,-25.00,-15.97,3
0.07,0.99,0.02,-4.03,-13.31,-2.32,3.36,-25.50,-16.78,3
0.07,0.98,0.01,-0.18,-11.84,1.04,2.70,-25.56,-16.99,3
0.05,0.98,0.03,3.11,-24.11,-2.01,1.82,-25.09,-15.98,3
0.05,1.01,0.03,-0.18,-23.32,-4.76,1.32,-24.82,-17.08,3
0.07,0.99,0.04,-1.40,-21.12,-1.16,1.28,-24.82,-16.66,3
0.09,0.99,0.03,-1.10,-21.55,-1.22,0.21,-25.12,-17.25,3
0.05,0.99,0.04,2.08,-19.59,-2.32,-1.03,-25.17,-15.76,3
0.06,1.00,0.03,-1.40,-13.73,-4.03,-1.61,-25.13,-16.41,3
0.06,1.00,0.05,1.34,-14.71,-1.89,-1.78,-25.21,-14.69,3
0.09,1.00,0.03,-3.97,-12.57,-6.10,-2.15,-25.48,-16.04,3
0.10,0.99,0.05,-4.94,-17.21,-5.43,-2.32,-25.18,-14.87,3
0.09,0.97,0.05,0.12,-17.15,-3.17,-2.37,-25.90,-15.01,3
0.08,1.00,0.04,-1.71,-9.09,-2.75,-2.83,-25.11,-15.69,3
0.12,1.00,0.03,0.73,-23.19,-5.86,-2.89,-25.23,-15.21,3
0.12,0.96,0.07,6.04,-22.83,-3.97,-3.21,-25.35,-16.52,3
0.15,0.98,0.07,1.89,-28.08,-7.69,-3.10,-25.18,-13.94,3
0.12,0.96,0.09,0.49,-21.67,-7.51,-3.82,-25.17,-15.41,3
0.14,0.98,0.08,-0.67,-19.10,-7.63,-3.96,-25.44,-14.97,3
0.15,0.98,0.07,-1.04,-17.82,-5.68,-4.25,-25.66,-13.53,3
0.18,0.97,0.07,-3.23,-18.07,-4.52,-4.30,-25.78,-13.78,3
0.16,0.95,0.09,-2.93,-10.99,-1.22,-5.27,-25.24,-12.85,3
0.16,1.00,0.08,-6.23,8.24,6.04,-5.26,-26.06,-12.61,3
0.16,0.99,0.08,-1.59,34.67,9.70,-5.22,-26.07,-13.12,3
0.11,0.99,0.06,-1.53,20.32,4.39,-4.77,-25.81,-13.07,3
0.12,0.96,0.06,3.54,8.91,11.78,-5.11,-25.18,-13.21,3
0.09,0.94,0.06,3.72,-5.07,17.64,-5.66,-25.94,-13.84,3
0.09,0.97,0.06,1.53,-18.31,16.78,-7.64,-25.00,-13.44,3
0.06,1.03,0.05,0.92,-8.30,9.52,-8.54,-25.11,-12.72,3
-0.01,1.00,0.05,-5.98,-2.38,13.85,-10.47,-24.33,-14.37,3
-0.00,1.00,0.05,-5.37,7.26,6.65,-11.11,-23.86,-14.44,3
-0.03,1.01,0.04,-0.49,26.98,9.52,-11.43,-23.90,-12.70,3
-0.04,0.98,0.05,0.79,46.57,17.76,-11.43,-23.54,-14.31,3
-0.08,0.98,0.07,4.70,33.20,15.26,-11.15,-22.86,-15.75,3
-0.08,0.97,0.08,-0.55,21.36,2.50,-11.24,-22.66,-16.60,3
-0.05,0.98,0.05,-0.37,23.68,-7.75,-9.69,-22.51,-17.76,3
-0.07,0.98,0.09,-1.40,19.71,-14.83,-8.75,-22.44,-18.30,3
-0.09,0.96,0.09,-6.77,22.40,-1.10,-7.57,-22.86,-17.07,3
-0.02,1.02,0.07,-5.07,43.64,-12.57,-4.97,-23.23,-18.26,3
0.02,0.99,0.06,-3.05,28.08,-8.00,-4.24,-23.45,-17.24,3
0.01,1.00,0.07,-7.39,18.92,-8.12,-2.76,-24.13,-17.59,3
0.01,0.98,0.05,-3.54,25.09,-2.01,-1.18,-24.01,-17.59,3
-0.03,1.00,0.09,-2.20,26.49,6.04,-0.26,-23.96,-18.38,3
0.01,0.98,0.05,0.18,15.75,0.24,0.76,-24.43,-17.90,3
-0.00,0.98,0.06,0.37,21.18,0.43,1.25,-23.91,-18.24,3
0.01,0.99,0.05,-1.16,27.34,-4.58,2.83,-24.13,-17.15,3
-0.01,0.98,0.07,-0.55,20.39,-7.26,4.36,-24.02,-18.01,3
0.00,0.99,0.07,-1.40,19.17,3.60,5.29,-24.41,-19.07,3
0.01,0.96,0.07,2.87,16.11,-2.87,6.16,-24.00,-18.38,3
0.03,0.99,0.07,3.17,18.86,-1.89,6.71,-24.33,-17.26,3
0.03,1.00,0.09,2.38,11.90,0.37,8.56,-24.12,-18.25,3
0.04,1.00,0.09,2.44,9.16,-0.31,8.37,-24.00,-18.44,3
0.02,1.00,0.11,4.21,9.09,0.37,8.97,-24.08,-17.70,3
0.04,0.99,0.11,2.75,16.97,1.40,9.39,-23.40,-17.91,3
0.03,1.01,0.07,-1.59,14.53,0.37,10.84,-23.72,-18.48,3
0.04,0.96,0.08,-2.26,14.04,5.25,11.10,-23.61,-18.10,3
0.07,0.96,0.05,-2.75,6.77,0.67,11.57,-23.27,-17.86,3
0.04,1.03,0.07,2.93,2.08,0.61,11.32,-23.07,-17.30,3
0.02,1.01,0.10,2.14,-1.40,1.53,11.13,-23.19,-17.43,3
0.04,0.98,0.07,5.98,4.09,6.41,11.25,-22.90,-16.96,3
-0.00,0.88,0.10,-6.10,14.04,-10.86,10.73,-22.80,-18.52,3
0.03,0.95,0.12,10.19,13.37,15.69,10.88,-23.06,-19.09,3
-0.00,0.95,0.06,3.78,34.36,8.67,11.52,-23.72,-16.89,3
0.01,1.00,0.13,2.38,34.61,14.71,12.15,-23.68,-16.60,3
-0.00,0.97,0.14,2.38,9.34,2.56,13.01,-24.10,-16.64,3
-0.02,1.00,0.11,-0.37,4.82,-0.85,12.89,-23.58,-15.95,3
-0.02,0.97,0.15,-3.23,4.88,-3.23,12.78,-23.79,-15.70,3
0.01,1.00,0.10,-9.03,21.67,1.71,13.65,-23.94,-15.58,3
0.04,0.98,0.04,-5.25,15.63,0.67,14.03,-24.60,-14.66,3
-0.02,0.93,0.08,0.06,8.73,6.29,14.04,-24.44,-13.73,3
-0.03,0.98,0.10,10.38,13.18,8.36,13.96,-24.44,-13.11,3
-0.04,1.03,0.13,2.62,23.86,7.75,14.18,-24.77,-13.88,3
-0.05,0.97,0.11,-4.82,9.95,1.71,14.11,-25.10,-13.78,3
-0.04,1.01,0.11,-2.32,7.39,-0.12,14.65,-24.84,-14.03,3
-0.03,1.00,0.09,-1.28,18.74,-0.06,14.87,-25.27,-13.72,3
-0.03,0.98,0.12,-3.36,13.92,-0.92,14.21,-24.76,-12.59,3
-0.08,0.95,-0.04,21.00,75.32,25.39,14.20,-25.61,-13.43,3
-0.06,0.96,0.07,4.82,6.90,-5.49,14.72,-25.07,-11.10,3
-0.06,0.95,0.09,-1.46,-10.31,-1.40,15.19,-25.89,-10.30,3
-0.06,0.93,0.02,-7.02,2.38,-5.62,15.26,-25.79,-10.22,3
-0.01,1.00,0.10,2.01,8.42,-9.16,16.24,-25.72,-10.08,3
-0.00,1.00,0.09,-13.55,-6.47,0.24,16.91,-26.12,-9.69,3
-0.05,0.98,0.07,-14.77,14.77,6.23,16.69,-25.84,-8.68,3
-0.02,1.04,0.03,0.55,29.36,-3.17,16.94,-26.98,-6.74,3
0.01,1.00,0.02,9.70,29.24,-6.10,17.16,-26.50,-7.21,3
0.01,1.01,0.05,5.07,20.57,0.31,18.26,-26.18,-8.14,3
-0.04,1.01,0.11,9.40,24.66,-7.63,18.29,-26.54,-5.85,3
-0.06,0.99,0.08,-2.38,31.43,11.41,18.53,-25.87,-6.51,3
0.02,1.00,0.07,-8.00,49.26,-3.11,19.30,-26.81,-5.11,3
0.01,1.01,0.06,-3.85,19.47,12.76,19.36,-27.09,-3.00,3
-0.05,1.01,0.11,-3.30,31.74,-7.75,19.31,-27.31,-2.61,3
0.04,0.99,0.06,-6.04,25.70,-13.79,20.08,-27.32,0.35,3
0.01,0.98,0.08,-6.77,30.76,-3.42,21.12,-27.16,0.98,3
0.03,0.98,0.02,0.43,14.71,0.73,20.40,-27.12,3.92,3
0.02,0.99,0.03,-5.92,29.91,-2.14,21.36,-26.65,2.69,3
0.04,1.03,0.02,-3.42,26.37,-1.53,21.31,-27.06,3.85,3
0.00,0.98,0.02,-8.00,26.49,6.59,21.07,-27.33,6.19,3
-0.01,0.99,-0.01,-10.68,23.38,20.20,19.29,-27.66,9.03,3
-0.04,1.02,-0.03,-11.17,4.03,13.92,18.43,-27.76,10.11,3
-0.07,1.02,-0.02,-6.77,-11.23,-7.26,17.70,-27.89,9.86,3
-0.04,1.01,-0.03,-0.31,0.37,6.59,18.65,-27.17,11.15,3
-0.04,1.07,-0.04,-9.22,-1.22,10.99,16.67,-27.98,11.78,3
-0.07,0.99,-0.09,-13.12,-0.98,16.48,16.25,-27.53,11.50,3
-0.10,0.95,-0.11,-7.39,4.27,-5.37,15.69,-28.02,11.24,3
-0.06,0.94,-0.12,-2.14,-0.98,-22.03,16.60,-27.22,11.46,3
0.01,0.99,-0.09,11.47,0.85,-14.10,18.38,-27.19,11.27,3
0.04,0.98,-0.07,8.73,-1.40,-12.88,19.19,-26.87,10.03,3
0.02,0.97,-0.05,7.93,9.03,-2.81,19.92,-26.33,9.45,3
0.04,0.95,-0.04,3.54,13.85,-1.34,20.41,-26.38,9.92,3
0.03,0.96,-0.05,3.23,27.53,-6.04,20.85,-26.11,11.58,3
0.02,0.96,-0.02,8.73,8.30,-8.24,20.52,-26.12,9.42,3
0.06,0.96,-0.02,6.84,-15.87,-12.94,20.86,-25.71,10.35,3
0.06,0.99,-0.01,7.39,-21.67,3.78,22.58,-25.26,8.33,3
0.08,1.05,-0.01,4.52,-39.31,-4.70,21.70,-25.33,7.35,3
0.10,0.98,0.07,13.12,-30.03,-10.68,23.18,-25.39,5.16,3
0.12,0.99,0.07,3.72,-14.04,-3.48,23.43,-25.07,3.91,3
0.07,0.93,0.06,5.37,-18.13,-1.16,23.65,-24.38,1.59,3
0.11,0.99,0.05,0.24,-16.66,-10.62,24.33,-24.46,2.53,3
0.17,0.98,0.08,2.01,-12.57,-1.77,24.62,-24.11,0.82,3
0.14,1.01,0.10,9.09,-28.32,2.14,24.79,-24.07,-1.16,3
0.09,0.97,0.12,1.89,-9.58,-3.42,25.76,-24.06,-2.47,3
0.10,1.00,0.12,-0.37,-9.83,-2.81,25.07,-23.69,-2.76,3
0.10,0.99,0.11,-1.53,2.75,2.75,25.16,-24.24,-2.60,3
0.09,0.97,0.09,-18.37,27.28,19.04,24.06,-24.51,-0.13,3
0.07,0.99,0.04,-18.01,30.15,16.91,23.03,-25.52,2.16,3
0.11,0.96,0.01,3.66,21.24,10.50,22.35,-25.66,3.64,3
-0.02,0.97,0.02,-3.36,24.96,10.13,22.17,-25.96,4.93,3
0.01,1.00,0.01,-6.10,25.45,9.95,20.89,-26.50,6.71,3
0.05,0.98,-0.00,5.25,12.76,-0.55,20.40,-26.49,6.87,3
0.03,0.98,0.04,9.22,9.89,-1.10,20.56,-26.60,5.77,3
-0.00,1.01,0.08,7.20,11.60,6.71,20.70,-26.92,5.13,3
-0.00,1.01,0.09,4.09,11.17,4.64,19.75,-27.33,5.37,3
-0.01,0.98,0.06,0.85,10.86,4.39,19.78,-27.44,5.14,3
-0.01,0.96,0.08,-3.60,3.54,-3.11,19.41,-27.54,6.62,3
0.02,1.00,0.10,2.99,5.25,-2.62,20.30,-27.34,4.88,3
0.03,0.96,0.06,-4.03,-9.40,2.08,19.56,-27.17,5.49,3
0.01,1.00,0.07,-1.71,-33.14,-15.93,21.15,-27.33,4.86,3
0.01,0.98,0.07,0.18,-41.75,-12.45,21.72,-26.65,3.53,3
0.02,0.97,0.09,3.17,-21.73,-2.87,22.07,-26.76,2.22,3
0.04,0.98,0.09,0.37,-15.32,-4.33,22.53,-25.99,1.87,3
0.03,0.99,0.07,0.98,-10.19,-7.93,22.96,-25.46,1.54,3
0.07,1.01,0.10,0.49,-11.05,-9.83,23.49,-25.48,0.48,3
0.09,1.00,0.12,2.56,-7.14,-8.42,23.68,-25.17,-0.73,3
0.08,0.99,0.11,2.32,-7.63,-4.64,24.22,-24.26,0.24,3
0.08,0.98,0.09,-0.24,-9.46,-11.78,25.20,-23.96,-0.72,3
0.15,0.98,0.10,4.27,-15.44,-17.21,25.63,-23.29,-0.98,3
0.12,0.98,0.12,-2.75,-58.04,-2.93,26.99,-23.00,-4.05,3
0.10,0.95,0.17,-16.48,-70.43,-5.68,25.93,-23.13,-5.87,3
0.16,0.99,0.06,-43.21,-49.87,-11.90,24.99,-23.01,-3.34,3
0.14,0.99,0.05,-0.73,-36.87,-5.68,24.19,-23.07,-6.12,3
0.07,0.98,0.04,11.23,-38.21,-4.21,23.68,-22.44,-7.40,3
0.17,0.97,0.10,28.99,-48.65,-8.30,23.02,-21.67,-10.47,3
0.07,0.95,0.19,16.91,-11.96,5.49,22.39,-20.78,-13.23,3
0.13,0.93,0.18,-14.04,-15.75,-0.85,21.98,-20.01,-15.97,3
0.11,0.94,0.17,-8.24,-3.72,1.04,21.62,-20.28,-15.83,3
0.07,0.97,0.17,-23.01,-5.80,11.96,19.97,-21.63,-14.89,3
0.08,0.98,0.10,-15.01,4.39,9.52,20.29,-22.17,-13.46,3
0.04,1.01,0.14,-16.36,44.62,-1.40,20.78,-22.35,-12.73,3
0.18,1.00,0.06,2.32,7.02,-17.64,22.51,-22.94,-10.35,3
0.11,0.99,0.16,9.09,-45.72,5.31,21.11,-22.24,-12.83,3
0.10,0.96,0.19,8.24,-39.79,-7.39,21.00,-21.68,-14.32,3
0.10,0.95,0.18,3.72,-34.24,-1.59,20.56,-21.29,-15.50,3
0.14,1.01,0.16,-8.42,-24.96,6.59,19.31,-21.51,-16.48,3
0.09,0.97,0.16,-8.67,-30.40,10.13,16.14,-21.68,-16.25,3
0.05,0.95,0.16,-0.67,-24.29,1.28,15.64,-22.23,-18.30,3
0.02,0.95,0.14,4.88,-28.38,8.06,13.84,-21.97,-17.29,3
0.09,1.04,0.10,-21.67,-12.45,-17.21,13.71,-22.69,-17.96,3
0.03,0.97,0.15,4.76,-13.61,-1.10,13.31,-22.08,-18.24,3
0.02,1.00,0.11,8.97,-26.49,-4.33,13.23,-22.11,-17.40,3
0.08,0.91,0.15,15.26,-13.18,-9.64,12.85,-21.94,-19.20,3
0.11,0.94,0.09,8.18,-3.36,-4.58,13.24,-20.81,-20.04,3
0.04,0.96,0.20,-5.43,-11.78,-5.98,12.54,-20.91,-20.45,3
0.12,1.00,0.23,-5.13,-4.88,-7.51,13.06,-20.57,-20.26,3
0.12,0.97,0.16,0.06,-12.51,0.37,13.18,-21.14,-20.80,3
0.12,0.98,0.17,-4.27,-19.47,9.03,12.62,-20.61,-21.59,3
0.07,0.99,0.07,-34.36,-29.79,-16.91,11.87,-21.69,-19.70,3
0.11,0.95,0.18,-6.41,-14.04,-1.40,11.62,-21.78,-20.32,3
0.12,0.99,0.15,-6.77,-54.57,0.55,11.05,-21.97,-20.00,3
0.18,0.98,0.32,-6.65,-23.80,-4.64,9.46,-21.09,-21.07,3
0.12,0.96,0.05,7.45,-36.87,-5.00,7.95,-22.19,-20.47,3
0.09,0.93,0.15,1.10,-3.60,-6.47,8.26,-21.83,-22.27,3
0.15,1.00,0.14,-17.09,-35.52,-7.81,8.11,-22.69,-20.26,3
0.14,0.97,0.11,0.18,-0.79,-21.79,8.04,-22.60,-19.81,3
0.16,0.95,0.08,3.66,2.99,0.24,8.29,-22.75,-19.46,3
0.17,1.02,0.10,-1.10,-5.68,4.76,7.52,-22.56,-19.69,3
0.15,0.99,0.16,8.97,4.82,4.27,6.99,-22.39,-21.01,3
0.15,0.96,0.17,-28.44,-30.33,-16.66,6.31,-22.17,-20.96,3
0.12,0.94,0.11,8.67,-24.84,-6.71,6.08,-22.81,-20.84,3
0.17,0.96,0.06,-3.48,-30.21,5.00,5.53,-22.91,-20.15,3
0.11,0.96,0.12,0.31,-16.05,6.59,4.06,-22.92,-20.52,3
0.13,0.99,0.13,-8.06,-18.43,5.07,2.53,-22.69,-19.84,3
0.11,1.07,0.11,-9.09,-27.59,17.64,1.60,-22.63,-19.62,3
0.11,1.05,0.11,20.57,9.83,3.42,-1.51,-22.81,-18.46,3
0.09,0.97,0.15,6.77,15.26,-3.11,-1.22,-21.91,-21.17,3
0.12,0.99,0.15,0.67,23.99,-13.98,2.10,-22.05,-20.36,3
0.13,0.98,0.19,-12.21,19.84,8.67,2.36,-22.28,-21.22,3
0.08,1.03,0.22,9.95,19.84,4.70,2.92,-21.80,-20.73,3
0.07,1.02,0.15,6.53,19.17,7.93,3.77,-22.11,-21.45,3
0.09,0.97,0.20,7.45,11.72,-2.20,4.42,-21.01,-22.63,3
0.11,0.97,0.20,2.93,6.41,-1.89,3.76,-21.17,-21.84,3
0.13,0.97,0.22,0.79,4.27,-0.92,4.64,-20.57,-22.71,3
0.13,0.98,0.19,-8.48,-3.42,-1.40,4.91,-20.83,-21.67,3
0.07,0.96,0.22,8.42,10.01,1.59,5.10,-20.90,-21.73,3
0.11,0.95,0.20,-1.46,1.04,-1.40,5.66,-20.89,-23.10,3
0.13,0.96,0.18,-0.24,7.02,-2.62,5.63,-21.00,-22.29,3
0.16,0.99,0.21,3.60,3.30,-0.18,7.48,-21.35,-22.36,3
0.15,0.96,0.18,0.49,-1.10,-0.98,7.40,-21.17,-23.08,3
0.15,0.96,0.20,1.22,-1.04,-0.43,7.12,-21.30,-22.64,3
0.14,0.98,0.17,-8.12,-5.49,-6.90,7.32,-21.02,-23.03,3
0.15,0.98,0.19,-1.22,-26.67,-8.12,7.07,-20.92,-23.49,3
0.16,0.99,0.22,2.32,-13.73,-4.58,6.27,-20.94,-22.74,3
0.15,0.93,0.20,-5.92,-17.70,5.25,5.54,-20.84,-23.29,3
0.13,0.96,0.19,-18.55,-17.27,4.82,4.74,-21.11,-22.91,3
0.13,0.99,0.16,-0.55,-45.72,9.77,2.99,-21.51,-21.73,3
0.11,0.98,0.23,12.57,-18.25,0.43,0.43,-20.91,-21.84,3
0.12,0.97,0.19,-8.36,-0.18,-4.94,1.09,-20.85,-22.58,3
0.10,0.94,0.17,-15.81,-9.77,0.98,0.92,-21.72,-21.29,3
0.10,0.97,0.11,-20.87,-9.28,4.46,0.17,-22.39,-19.35,3
0.08,0.98,0.13,-1.40,-13.43,-3.11,-1.23,-23.05,-18.66,3
0.12,0.98,0.11,-10.19,-33.63,-1.53,-1.54,-22.96,-19.43,3
0.06,0.98,0.10,-0.67,-50.60,1.28,-3.06,-22.62,-18.14,3
0.08,0.98,0.12,-3.42,-18.62,2.99,-4.93,-22.40,-18.25,3
0.05,0.98,0.12,-9.09,-12.82,-2.14,-5.73,-22.95,-18.63,3
0.06,0.98,0.11,-4.27,-17.46,-1.28,-6.34,-23.12,-16.76,3
0.03,0.99,0.10,-9.40,-20.57,-0.73,-6.81,-23.61,-16.59,3
0.07,0.97,0.08,-7.02,-21.91,-1.22,-7.76,-23.33,-14.47,3
0.10,0.97,0.06,-2.44,-25.27,-3.72,-8.36,-23.54,-13.02,3
0.05,0.97,0.08,6.04,-26.18,3.36,-9.18,-23.86,-13.42,3
0.05,1.00,0.10,-1.65,-15.56,-1.89,-10.27,-23.54,-13.94,3
0.06,0.98,0.05,-8.67,-24.35,6.10,-11.16,-23.75,-13.98,3
0.05,0.98,0.05,1.22,-25.39,1.28,-12.27,-23.83,-10.89,3
0.02,0.98,0.07,-6.77,-19.53,-6.23,-12.02,-23.55,-11.80,3
0.06,1.01,0.07,-11.84,-10.13,-16.91,-12.24,-24.04,-10.52,3
0.08,1.00,0.03,-10.25,-11.66,-14.34,-11.74,-24.88,-9.45,3
0.09,0.99,0.00,-3.72,-18.19,4.15,-11.30,-25.00,-8.58,3
0.06,0.99,0.02,5.19,13.43,5.00,-11.46,-25.24,-8.31,3
0.08,1.00,0.03,16.72,33.75,7.20,-11.71,-24.35,-7.75,3
0.04,0.99,0.08,16.60,5.86,8.97,-12.68,-23.68,-10.73,3
0.07,0.97,0.07,-8.00,-5.25,7.69,-12.98,-23.34,-12.13,3
0.02,0.97,0.07,-2.69,-23.86,3.78,-13.09,-24.13,-10.36,3
-0.00,0.98,0.06,-9.09,-24.35,-6.04,-13.68,-23.85,-9.22,3
0.01,1.03,0.06,-4.39,-31.19,-15.14,-13.56,-23.94,-7.18,3
0.06,0.97,0.02,-5.68,-31.92,-1.83,-14.37,-24.30,-7.21,3
0.07,0.98,-0.02,-13.55,-29.66,0.00,-14.07,-24.60,-4.96,3
0.01,1.00,0.02,5.07,-23.13,7.39,-15.19,-24.57,-3.50,3
0.06,0.99,0.00,7.32,-21.00,-0.24,-15.56,-25.02,-3.98,3
0.06,0.98,0.03,1.83,-7.81,1.16,-15.92,-24.48,-2.93,3
0.01,0.97,0.04,3.05,-2.32,1.53,-15.45,-24.28,-4.80,3
-0.01,0.99,0.06,4.39,33.81,-6.96,-14.97,-24.10,-4.60,3
0.02,0.99,0.06,16.48,48.03,-1.22,-14.01,-24.04,-7.10,3
0.05,0.99,0.08,2.14,45.53,3.17,-13.07,-24.67,-7.80,3
0.08,1.00,0.05,-4.94,35.10,0.85,-12.52,-24.79,-10.31,3
0.09,1.00,0.03,14.16,22.71,3.11,-11.89,-24.57,-10.01,3
0.03,0.98,0.09,11.23,17.33,6.47,-11.78,-23.50,-11.71,3
0.00,0.96,0.11,0.18,22.95,2.14,-12.06,-23.36,-12.73,3
0.05,1.00,0.06,-3.17,42.30,-4.58,-10.93,-23.54,-12.23,3
0.09,1.00,0.05,-2.50,18.01,3.42,-9.79,-22.83,-13.56,3
0.03,0.97,0.06,6.04,31.43,-3.54,-9.99,-22.75,-14.36,3
0.08,0.97,0.10,1.65,32.78,-0.92,-8.72,-23.02,-13.99,3
0.13,1.02,0.03,1.28,6.96,8.06,-6.56,-23.16,-14.72,3
0.09,0.97,0.18,28.14,-4.58,23.68,-7.53,-22.94,-15.14,3
0.15,0.99,0.16,-6.29,47.67,-21.42,-5.97,-22.07,-17.16,3
0.08,0.98,0.05,-6.10,24.29,10.68,-5.19,-22.07,-17.21,3
0.04,1.00,0.15,4.27,44.13,13.55,-5.54,-22.63,-18.42,3
-0.01,0.97,0.17,7.39,58.65,7.51,-3.78,-20.89,-20.50,3
0.01,0.99,0.14,8.30,43.46,-7.14,-1.50,-20.13,-22.20,3
0.05,0.98,0.31,1.89,27.22,2.44,-0.57,-19.93,-22.18,3
0.08,1.01,0.22,-0.61,19.90,-1.65,0.35,-20.86,-22.09,3
-0.01,0.96,0.15,0.37,1.71,9.58,0.78,-20.03,-21.61,3
0.01,0.95,0.17,-1.65,6.29,-0.85,1.20,-20.29,-22.39,3
0.06,0.98,0.18,-9.40,1.28,-1.04,1.61,-20.69,-23.74,3
0.08,1.00,0.19,-2.38,-1.59,5.62,1.21,-21.26,-21.14,3
0.05,0.98,0.18,0.37,10.56,-0.55,0.78,-20.73,-20.36,3
0.00,0.97,0.15,1.77,1.59,4.27,0.89,-20.51,-19.75,3
-0.01,0.97,0.15,-3.11,5.55,2.81,1.33,-21.18,-21.83,3
0.04,0.95,0.11,7.26,20.39,-7.75,2.91,-21.22,-20.52,3
0.04,0.97,0.17,0.73,88.26,23.93,4.90,-20.87,-21.13,3
0.06,0.96,0.19,4.21,55.30,5.31,7.09,-21.39,-22.05,3
0.03,0.95,0.19,7.20,46.02,5.43,9.01,-20.72,-21.09,3
0.01,0.95,0.18,12.02,51.57,19.71,10.39,-20.80,-19.68,3
0.06,0.93,0.25,20.87,35.58,6.10,11.18,-20.26,-20.79,3
0.03,0.96,0.28,8.24,16.11,6.29,11.76,-20.67,-20.26,3
0.06,0.96,0.26,-12.39,26.67,7.51,12.51,-20.03,-21.35,3
-0.00,0.97,0.22,20.94,52.00,21.67,13.12,-20.58,-20.10,3
-0.06,0.99,0.32,17.88,45.96,14.28,14.49,-20.21,-21.98,3
0.08,0.97,0.28,-5.55,24.60,0.12,16.28,-19.93,-20.98,3
0.06,0.95,0.27,-7.75,27.65,14.77,16.36,-20.73,-18.84,3
0.04,0.97,0.25,-10.25,17.46,16.36,16.67,-21.36,-17.11,3
0.02,0.96,0.20,-16.05,23.50,8.24,17.83,-21.73,-15.25,3
0.06,1.00,0.21,-10.62,10.86,4.58,17.55,-22.69,-14.14,3
0.03,0.98,0.16,-4.82,2.26,-1.16,18.01,-23.03,-13.70,3
0.02,1.00,0.14,-3.23,3.23,-9.16,18.27,-22.77,-13.11,3
0.01,0.94,0.21,3.78,17.76,-4.21,18.25,-23.40,-13.18,3
0.04,0.93,0.20,-4.39,10.19,-13.98,18.76,-22.97,-13.02,3
0.10,1.01,0.27,-6.41,-18.13,3.42,20.52,-22.71,-11.52,3
0.03,1.00,-0.07,-35.40,-6.90,-21.73,19.47,-22.99,-10.08,3
0.06,0.97,0.15,-6.59,2.87,1.59,20.56,-23.11,-10.40,3
0.05,1.00,0.11,-19.84,8.61,2.20,20.36,-23.08,-10.78,3
-0.19,0.70,-0.06,-12.27,24.48,-3.72,19.86,-24.12,-8.68,3
0.20,1.11,0.07,-2.14,-14.89,8.18,22.17,-24.13,-6.45,3
0.06,0.97,-0.07,13.31,42.30,-1.40,21.80,-23.91,-5.30,3
0.08,1.00,0.14,18.01,26.06,7.57,21.46,-23.75,-6.96,3
0.06,1.00,0.06,30.94,40.77,7.39,21.13,-24.54,-5.03,3
0.07,1.01,0.07,-4.88,-1.71,6.71,21.63,-24.16,-6.29,3
0.11,0.98,0.06,-1.71,70.68,-0.85,22.09,-25.05,-3.20,3
0.05,1.00,0.08,2.56,22.71,7.81,22.11,-25.22,-1.94,3
0.04,0.99,0.14,4.03,24.54,1.65,22.12,-25.45,-2.64,3
0.05,1.01,0.11,-9.52,20.63,0.00,21.47,-25.18,-0.40,3
0.06,0.99,0.06,-16.11,14.40,0.85,21.94,-25.05,2.22,3
0.06,1.01,0.05,-10.50,37.23,0.24,22.58,-25.61,3.23,3
0.07,0.99,0.02,-5.25,14.22,-3.11,22.50,-25.28,3.75,3
0.06,0.99,0.01,0.12,22.28,-4.46,22.53,-25.44,5.68,3
0.05,0.99,0.02,-9.89,26.00,-0.55,23.56,-26.16,7.43,3
0.07,0.91,-0.00,-13.98,49.38,5.98,22.97,-25.55,7.09,3
0.04,0.97,-0.07,-12.27,41.20,-4.88,21.64,-25.63,10.57,3
0.08,0.95,-0.08,-1.77,34.97,-7.75,21.59,-25.73,13.59,3
0.09,0.96,0.01,2.56,33.57,-2.26,21.63,-25.74,14.20,3
0.05,0.98,-0.08,-6.65,51.51,15.14,20.24,-26.06,15.48,3
0.02,0.96,-0.08,11.05,46.81,15.56,17.88,-26.26,16.70,3
-0.03,0.98,-0.05,15.01,39.86,0.24,16.27,-26.14,17.98,3
-0.03,0.99,-0.01,-7.57,17.15,-3.85,16.28,-27.11,17.49,3
0.01,0.98,-0.01,9.89,-1.53,4.88,15.80,-26.32,18.21,3
-0.02,1.03,-0.03,19.90,8.54,14.95,14.45,-26.37,16.86,3
-0.06,0.96,0.05,8.00,11.72,4.46,13.79,-27.22,15.49,3
-0.06,1.01,0.00,-1.83,27.77,-1.04,13.02,-27.75,16.37,3
-0.06,1.00,0.04,15.63,27.34,-1.71,12.78,-27.76,17.57,3
-0.04,0.97,0.07,1.77,22.28,-7.63,12.23,-27.42,15.97,3
0.00,1.02,0.06,-8.48,39.61,3.36,11.56,-27.44,16.49,3
-0.03,0.97,0.07,-9.40,29.79,-5.49,11.98,-27.36,16.39,3
-0.04,1.01,0.03,2.50,18.86,0.00,9.90,-27.09,18.02,3
0.02,0.97,0.08,-1.89,13.85,14.47,10.42,-27.45,17.61,3
-0.01,1.01,0.05,-0.31,6.35,-1.04,10.17,-26.82,18.19,3
-0.04,0.98,0.10,3.85,26.43,13.06,9.81,-27.22,18.33,3
-0.03,0.97,0.08,3.17,16.11,0.61,8.09,-27.21,17.68,3
0.00,0.93,0.12,5.13,29.11,0.12,7.80,-27.67,17.87,3
0.00,0.98,0.11,-0.73,7.81,-7.63,7.35,-27.82,18.68,3
-0.03,1.00,0.09,-1.65,-5.49,2.56,6.81,-27.32,18.27,3
-0.03,0.98,0.10,4.58,-26.06,-8.79,7.48,-27.23,18.03,3
0.01,0.98,0.11,5.98,-46.26,-14.89,9.50,-27.00,16.61,3
0.02,0.98,0.12,13.79,-43.58,-19.29,12.28,-27.45,16.92,3
-0.02,0.95,0.12,12.76,-39.06,2.50,12.62,-27.69,14.65,3
-0.02,0.98,0.14,0.92,-12.82,-2.14,12.82,-28.02,13.26,3
-0.01,0.98,0.13,2.38,-7.69,-3.17,13.66,-28.31,12.32,3
0.00,0.97,0.15,-1.71,-16.30,1.04,13.42,-28.31,13.60,3
-0.02,0.97,0.14,-1.83,-14.47,0.73,13.93,-28.32,12.95,3
-0.01,0.99,0.13,-1.53,-19.59,-1.40,13.39,-28.20,12.73,3
-0.01,1.01,0.12,2.50,-21.36,-3.78,13.66,-28.11,11.69,3
-0.01,0.96,0.15,5.07,-16.36,-0.06,15.01,-27.99,11.07,3
-0.01,0.99,0.13,2.32,-12.88,-0.79,15.12,-28.28,10.86,3
-0.02,0.97,0.15,-2.14,0.18,3.91,15.64,-28.19,10.60,3
-0.03,0.95,0.15,-1.89,4.88,3.36,15.17,-27.94,10.41,3
-0.09,1.02,0.09,-14.89,30.58,14.22,14.17,-28.56,10.12,3
-0.05,0.98,0.11,-0.92,8.61,1.59,13.09,-28.53,11.45,3
-0.03,0.98,0.11,-9.95,53.65,13.12,12.37,-28.56,12.48,3
-0.05,1.02,0.09,-5.68,70.25,11.60,9.89,-27.60,15.01,3
0.06,0.99,0.13,-4.39,15.81,-29.60,9.59,-28.22,14.45,3
-0.01,1.00,0.10,0.55,7.87,-4.46,11.43,-27.80,15.69,3
-0.05,0.97,0.08,-8.36,31.25,9.16,10.75,-26.84,15.93,3
0.00,1.00,0.14,25.21,64.39,-2.26,9.05,-27.67,15.27,3
0.02,0.98,0.16,4.33,37.05,-8.91,8.73,-27.98,15.53,3
0.07,0.98,0.18,2.62,24.48,3.05,8.80,-27.10,16.93,3
0.04,0.97,0.14,-3.36,-19.17,-3.78,7.81,-27.48,17.69,3
0.07,0.99,0.12,-8.36,-62.32,-20.87,10.68,-26.90,15.44,3
0.05,0.98,0.10,-7.26,-63.11,-22.34,12.93,-26.84,16.78,3
0.06,0.99,0.07,-6.90,-41.87,0.61,15.04,-26.88,15.34,3
0.10,0.96,0.11,6.47,-20.57,6.29,15.61,-26.72,14.50,3
0.04,0.94,0.14,4.76,-21.55,9.70,15.77,-26.90,13.87,3
0.03,0.98,0.13,1.59,-14.71,0.55,15.58,-27.14,12.77,3
0.01,1.00,0.12,1.46,-2.81,8.30,15.11,-27.56,13.60,3
0.04,1.01,0.13,2.01,-9.58,-1.40,14.51,-27.42,13.70,3
0.03,0.97,0.17,2.99,1.28,1.89,15.12,-27.73,10.93,3
0.03,0.99,0.16,-0.49,23.86,0.55,14.32,-27.05,11.98,3
0.08,0.98,0.19,3.66,-24.66,-15.93,14.25,-27.71,11.55,3
0.05,0.99,0.17,8.73,-35.03,-14.89,16.87,-27.75,11.54,3
0.04,0.97,0.17,2.99,-32.29,-3.05,17.69,-27.14,9.38,3
-0.00,0.96,0.18,2.08,-26.55,-13.55,17.74,-27.27,9.13,3
0.09,0.92,0.21,-10.62,-35.89,-11.90,19.90,-26.32,8.34,3
0.04,0.96,0.16,-0.43,-32.59,-1.83,20.97,-26.60,7.36,3
0.07,0.99,0.20,1.34,-49.13,-1.10,21.31,-26.09,4.92,3
0.03,1.01,0.18,1.46,-35.10,9.34,21.11,-26.50,4.13,3
0.00,0.96,0.21,4.58,-35.10,3.30,20.59,-26.64,4.60,3
-0.01,0.95,0.19,2.87,-30.33,1.59,20.50,-26.60,1.83,3
-0.02,0.97,0.17,2.20,-24.23,1.65,19.57,-26.75,1.25,3
-0.03,0.96,0.21,-4.33,-30.88,2.14,19.65,-26.56,-0.63,3
-0.01,0.92,0.31,26.55,-48.95,-23.74,19.13,-27.26,-1.49,3
-0.06,0.94,0.23,-7.51,-32.10,-6.35,20.40,-25.18,-4.94,3
-0.01,0.99,0.16,-29.30,-24.11,-4.46,20.24,-25.70,-3.20,3
-0.03,1.01,0.12,-14.71,-20.81,-8.85,19.74,-26.32,-3.04,3
-0.00,1.00,0.16,-3.30,-19.53,-1.65,20.30,-25.09,-3.72,3
-0.04,0.94,0.11,-4.76,-15.87,-6.71,20.35,-25.12,-4.87,3
-0.03,0.96,0.11,-5.43,18.25,5.37,21.20,-24.49,-3.06,3
0.02,0.94,0.11,4.21,8.73,-12.88,21.77,-24.96,-1.98,3
0.06,0.96,0.12,-5.37,-8.18,8.85,21.97,-24.69,-3.37,3
-0.01,1.01,0.20,-11.96,-33.02,12.21,20.94,-25.26,-3.32,3
-0.22,0.94,0.13,4.64,-36.56,17.21,19.62,-25.60,-5.04,3
-0.11,0.99,0.13,-16.54,1.22,-10.31,17.35,-25.92,-4.90,3
-0.02,1.01,0.11,-1.28,-15.81,-11.29,17.85,-26.49,-4.24,3
-0.01,1.00,0.10,7.75,-18.74,-8.97,17.97,-26.42,-4.81,3
-0.01,1.01,0.10,16.24,-20.08,-8.79,17.53,-26.82,-5.52,3
-0.01,1.04,0.14,11.17,-24.11,-2.38,17.90,-24.98,-6.91,3
-0.03,1.01,0.18,-19.78,-65.37,-21.18,17.53,-24.65,-7.93,3
0.05,0.97,0.15,-2.14,-32.53,-7.14,17.30,-23.97,-7.80,3
0.02,0.96,0.13,-2.75,-16.72,-4.15,16.35,-23.85,-9.23,3
0.11,0.96,0.09,-11.11,-48.10,-1.04,15.97,-23.00,-9.84,3
0.05,0.93,0.10,-2.14,4.21,-3.42,15.26,-24.35,-8.84,3
0.13,1.01,0.04,-11.78,-78.12,-18.25,15.86,-24.28,-8.04,3
0.17,1.02,0.07,-8.97,0.61,-4.15,15.28,-24.07,-9.11,3
0.12,0.97,0.06,-0.67,-25.94,4.46,14.93,-24.12,-10.73,3
0.11,1.01,0.06,-6.59,-15.69,8.97,14.66,-24.13,-10.95,3
0.07,0.99,0.08,0.37,-15.93,6.47,12.70,-24.27,-11.36,3
0.09,0.96,0.09,-4.70,-0.12,-1.28,13.02,-24.16,-11.68,3
0.04,0.96,0.04,0.49,-19.78,0.73,12.77,-24.55,-10.23,3
-0.01,1.01,0.03,15.69,-40.04,12.08,12.13,-25.33,-11.80,3
-0.06,0.99,0.02,2.01,-40.53,13.73,10.55,-24.63,-15.36,3
-0.08,0.98,0.06,-6.65,-29.36,-1.28,9.45,-24.55,-15.12,3
-0.01,0.94,0.05,-11.17,-30.70,-16.17,8.50,-24.19,-14.88,3
0.05,0.99,0.04,0.92,-46.81,-26.12,9.02,-24.13,-14.61,3
0.09,1.01,0.04,-0.92,-47.00,-14.89,9.42,-23.45,-16.21,3
0.07,1.01,0.07,-4.39,-35.52,5.49,9.31,-23.03,-16.25,3
0.03,1.01,0.06,-6.41,-52.92,4.64,7.26,-23.35,-15.10,3
-0.06,0.95,-0.02,-3.05,-49.32,-15.56,4.82,-23.89,-17.08,3
0.07,0.96,-0.02,-6.90,-55.18,-32.29,5.05,-24.04,-17.64,3
0.13,0.95,-0.05,-7.39,-56.88,10.01,4.35,-23.82,-16.50,3
0.11,1.01,0.05,-7.14,-70.50,5.62,2.11,-24.26,-16.96,3
0.17,1.00,0.03,-14.16,-111.21,-9.34,-0.71,-25.06,-15.70,3
0.06,0.97,0.02,-0.43,-61.71,-7.39,-3.65,-25.92,-14.51,3
0.05,0.93,0.05,4.27,-44.86,4.15,-4.32,-25.92,-14.07,3
0.16,1.00,0.11,5.55,57.43,-23.32,-4.33,-25.65,-15.67,3
0.25,1.00,0.13,7.32,-41.08,10.99,-2.36,-26.21,-17.77,3
0.06,0.98,0.11,-3.36,-18.49,5.00,-5.80,-25.78,-15.94,3
0.10,1.01,0.07,2.32,-19.10,-20.02,-6.56,-25.87,-16.88,3
0.13,1.00,0.10,21.24,-8.48,-24.96,-4.57,-25.66,-16.49,3
0.08,0.99,0.13,-7.45,-20.39,-21.85,-4.61,-24.96,-17.27,3
0.14,0.92,0.08,11.78,-32.04,8.18,-5.27,-25.28,-17.10,3
0.07,0.96,0.14,-9.46,-45.84,7.93,-6.12,-24.58,-16.91,3
0.08,0.99,0.17,-38.82,-68.73,3.54,-7.32,-25.34,-14.97,3
0.12,0.93,0.16,9.77,-31.62,-1.46,-7.51,-26.38,-10.97,3
0.03,1.04,0.22,5.49,-31.43,-1.34,-8.25,-26.81,-8.72,3
0.03,0.96,0.15,-10.01,-58.72,0.73,-10.28,-25.90,-9.22,3
0.02,0.96,0.12,-11.78,-59.33,0.79,-11.25,-25.17,-4.94,3
-0.01,0.96,0.06,2.44,-20.75,-22.34,-11.68,-25.67,-2.83,3
0.07,0.97,0.08,20.45,24.84,-21.79,-9.08,-26.18,-3.27,3
0.03,0.93,0.15,8.06,1.83,16.24,-8.64,-25.87,-5.33,3
0.02,0.97,0.16,-3.78,7.69,18.74,-10.00,-25.04,-5.33,3
0.02,0.97,0.15,-9.46,-1.10,12.27,-11.80,-24.67,-5.76,3
-0.00,1.01,0.11,-40.22,-5.74,5.00,-13.38,-24.69,-1.42,3
-0.04,1.00,0.03,-15.44,-19.65,13.55,-14.37,-24.60,-0.39,3
-0.00,0.98,0.03,10.56,5.07,-10.31,-15.14,-23.97,0.48,3
0.03,0.97,0.02,-0.85,32.10,-9.95,-15.67,-24.05,-0.50,3
0.04,1.01,0.10,2.20,23.56,12.51,-14.84,-24.12,-0.63,3
-0.03,1.00,0.05,-1.22,24.29,7.81,-16.14,-24.40,-3.41,3
-0.04,1.00,0.05,-2.44,8.97,4.76,-16.24,-23.36,-3.99,3
-0.04,0.97,0.03,3.42,3.11,-12.08,-16.56,-23.88,-3.21,3
0.02,0.94,0.07,2.08,-6.47,-0.92,-16.04,-24.08,-3.96,3
-0.02,0.96,0.12,0.24,-34.48,-15.38,-16.11,-24.18,-5.22,3
0.02,1.03,0.04,-8.24,11.41,-1.40,-16.60,-24.55,-3.17,3
0.02,0.99,0.06,-8.85,-2.75,5.43,-16.35,-24.28,-3.61,3
-0.03,1.00,0.09,-9.16,11.41,8.73,-17.25,-24.39,-4.02,3
-0.02,1.02,0.04,-16.78,51.33,-11.29,-17.18,-24.43,-3.17,3
0.11,1.03,-0.03,-35.46,78.12,-11.78,-15.37,-25.29,-4.03,3
0.00,0.99,-0.02,7.63,75.32,9.09,-15.32,-24.95,-5.64,3
0.04,0.96,-0.03,1.53,46.63,11.78,-14.79,-24.15,-7.10,3
0.02,0.97,-0.01,-2.38,32.84,3.60,-14.86,-23.54,-8.85,3
0.00,1.00,-0.10,16.05,15.26,9.34,-14.67,-23.63,-9.85,3
0.02,0.98,-0.00,-3.97,22.22,18.74,-14.81,-22.99,-10.88,3
-0.06,0.98,0.06,8.36,15.81,10.68,-15.66,-22.94,-10.90,3
-0.02,1.03,0.07,8.18,33.87,-9.95,-14.98,-22.40,-13.05,3
-0.13,0.96,0.03,-9.03,42.66,36.44,-15.00,-21.96,-13.09,3
-0.24,0.94,-0.03,13.98,63.11,18.92,-15.10,-20.89,-15.27,3
-0.22,1.00,-0.00,-2.14,48.03,-5.19,-14.33,-21.22,-16.88,3
-0.12,0.96,0.07,8.42,32.23,-8.85,-10.53,-20.90,-18.51,3
-0.07,0.98,0.11,-3.42,32.23,-16.36,-8.79,-21.09,-20.02,3
-0.07,0.95,0.13,-16.05,39.98,-3.91,-6.15,-21.30,-18.60,3
-0.08,1.00,0.02,-25.02,8.24,4.09,-5.57,-21.78,-20.50,3
-0.05,0.98,0.00,6.84,13.43,-7.63,-5.14,-23.01,-19.20,3
-0.12,1.01,0.08,11.41,-1.28,10.44,-5.51,-22.53,-19.29,3
-0.10,1.00,0.15,14.34,14.22,1.53,-5.04,-21.78,-20.65,3
-0.07,0.96,0.04,-7.39,1.22,7.57,-4.66,-21.35,-22.34,3
-0.10,1.02,0.13,-3.05,3.17,5.37,-5.54,-21.37,-20.75,3
-0.10,0.99,0.11,-0.79,4.15,-3.48,-5.29,-20.96,-21.24,3
