Acc_X,Acc_Y,Acc_Z,Gyr_X,Gyr_Y,Gyr_Z,Mag_X,Mag_Y,Mag_Z,Posture
0.99,-0.09,0.00,1.65,-1.95,0.06,41.91,28.82,16.89,4
1.00,-0.07,0.00,1.77,-0.18,-0.24,42.07,29.05,17.93,4
1.00,-0.07,-0.01,1.71,-2.50,-0.43,42.26,28.87,17.90,4
1.00,-0.07,0.00,2.01,-1.95,-0.31,42.05,28.72,16.72,4
1.00,-0.08,0.01,4.03,-0.98,-1.04,42.19,28.42,17.83,4
0.99,-0.09,0.01,10.93,-0.67,1.77,42.76,29.02,16.93,4
1.00,-0.08,0.01,20.75,-1.95,5.37,42.83,28.88,16.66,4
1.00,-0.07,0.02,22.89,-1.16,9.09,43.21,27.29,18.42,4
1.02,-0.08,-0.01,15.20,1.40,0.61,42.99,25.38,18.18,4
1.00,-0.07,0.00,7.39,-0.43,-2.81,42.52,25.23,18.60,4
1.00,-0.07,0.00,-0.06,0.18,-5.86,42.27,25.82,19.78,4
1.00,-0.06,0.01,5.19,0.73,-1.53,42.21,25.06,18.87,4
0.99,-0.06,0.01,7.14,-0.85,-4.21,42.26,25.60,20.64,4
1.00,-0.05,0.01,9.58,-4.39,-0.18,42.15,25.52,19.80,4
0.99,-0.06,-0.00,12.88,-3.60,-4.88,42.90,25.34,19.64,4
0.99,-0.10,0.01,7.63,-1.22,-1.53,42.58,25.21,18.90,4
0.99,-0.10,0.02,-2.44,-0.31,-7.08,41.88,26.33,18.13,4
1.00,-0.09,0.01,18.49,1.53,3.85,42.31,26.10,18.99,4
0.99,-0.13,0.04,5.98,-0.18,-2.44,42.18,24.55,20.70,4
1.01,-0.12,0.02,3.11,5.43,0.06,41.72,26.09,20.62,4
0.98,-0.13,0.01,-2.08,1.16,-0.61,41.92,24.67,20.51,4
1.00,-0.12,-0.01,3.66,1.04,0.24,41.86,24.94,20.70,4
1.00,-0.14,0.01,-3.17,-1.28,-9.03,42.24,24.87,20.72,4
1.01,-0.15,-0.01,-4.64,-1.59,0.55,41.91,26.39,20.04,4
1.00,-0.10,0.00,-14.65,-5.13,-0.67,42.35,26.32,21.34,4
0.98,-0.12,0.01,-19.04,-1.83,-3.60,42.08,26.31,20.75,4
1.00,-0.14,-0.01,-25.94,1.95,-12.08,42.27,27.31,18.52,4
0.97,-0.15,0.01,-9.34,2.93,-0.43,41.93,29.48,17.79,4
1.01,-0.15,-0.02,-27.47,6.16,-3.17,41.85,29.08,18.76,4
1.00,-0.13,-0.02,-7.93,-1.65,-0.43,41.74,29.66,18.38,4
0.95,-0.16,0.02,3.48,-3.05,0.79,41.25,30.11,18.59,4
0.97,-0.15,0.03,43.33,0.06,8.79,42.57,29.37,18.85,4
1.01,-0.11,-0.03,30.21,0.73,5.98,42.14,27.54,19.90,4
0.99,-0.14,0.00,24.72,-2.20,1.40,42.14,25.96,20.68,4
0.92,-0.18,0.04,36.19,-0.49,14.28,41.76,24.68,21.11,4
0.99,-0.16,0.04,35.64,-4.76,16.66,42.82,22.06,22.64,4
1.04,-0.01,-0.01,20.02,-0.37,12.57,43.14,19.56,22.96,4
1.03,-0.04,-0.03,-0.06,2.93,3.17,43.01,18.60,22.64,4
0.96,-0.04,0.02,7.39,0.12,-0.67,42.49,18.59,22.23,4
0.98,-0.04,-0.02,13.85,-1.83,-0.37,43.12,17.79,23.07,4
1.02,-0.03,-0.04,12.88,8.61,5.07,42.16,16.92,23.61,4
1.03,-0.00,-0.06,-0.92,2.44,6.10,42.88,15.86,23.69,4
0.93,0.01,-0.03,-18.19,-5.74,-1.65,42.48,16.47,22.77,4
1.00,-0.04,-0.04,-32.47,-2.93,-12.88,43.13,16.76,22.68,4
0.99,-0.13,-0.04,-32.53,-0.61,-13.79,42.86,19.21,23.68,4
1.01,-0.08,-0.08,-26.79,-1.04,-39.00,42.36,23.21,24.10,4
0.99,-0.11,-0.05,9.89,-3.78,-1.22,42.05,24.19,22.96,4
1.03,-0.14,-0.05,43.64,-1.28,12.33,41.64,23.85,23.14,4
0.98,-0.10,-0.03,28.08,-4.58,20.69,41.54,20.01,22.62,4
1.02,-0.03,-0.07,33.20,0.43,13.31,42.96,18.09,23.36,4
0.91,-0.01,0.02,44.37,19.35,21.91,42.48,16.74,23.77,4
1.00,-0.03,-0.12,71.66,14.95,-27.83,41.67,13.39,25.11,4
0.98,-0.07,-0.19,65.73,23.86,-43.64,40.03,13.39,27.73,4
0.98,0.01,-0.07,62.19,-10.80,1.46,41.00,11.44,26.93,4
0.92,0.02,-0.25,37.90,-8.36,8.24,41.36,9.67,27.05,4
0.96,-0.02,-0.12,19.17,-8.91,5.31,41.47,5.77,24.56,4
1.00,-0.01,-0.16,30.58,-15.08,0.43,42.36,5.19,22.77,4
1.00,-0.01,-0.14,76.97,-1.16,-6.29,42.71,3.20,21.62,4
1.00,0.02,-0.10,43.64,-3.42,-6.96,43.13,2.73,20.53,4
1.00,-0.01,-0.11,20.75,4.64,7.20,43.10,1.89,19.92,4
0.97,0.00,-0.08,36.99,-5.13,4.52,43.71,-0.18,16.37,4
1.00,0.03,-0.13,43.15,11.84,-4.94,42.81,-1.68,16.37,4
0.95,0.05,-0.14,23.38,-4.39,3.30,42.49,-3.17,16.48,4
1.08,-0.01,-0.02,1.83,-13.79,-11.11,42.24,-4.08,16.38,4
0.99,0.04,-0.13,-50.54,5.49,8.79,42.64,-3.11,16.20,4
0.99,0.03,-0.13,-38.57,-2.87,-5.80,41.76,-1.76,19.03,4
0.92,0.01,-0.08,-6.16,-1.40,-0.18,42.96,-1.95,19.01,4
0.97,0.04,-0.15,-13.43,9.83,11.66,42.57,-1.43,19.56,4
0.98,0.03,-0.18,-1.10,5.92,1.65,42.15,-1.72,21.22,4
0.99,0.04,-0.17,32.04,3.60,6.29,41.80,-2.65,19.38,4
1.04,0.06,-0.14,-12.57,-0.67,0.92,42.20,-2.55,20.30,4
0.97,0.05,-0.17,-62.74,4.46,5.13,41.96,-2.39,20.14,4
0.98,0.01,-0.19,-50.23,6.59,3.72,41.13,-0.70,22.35,4
0.98,0.03,-0.17,-27.65,0.37,-1.10,41.06,0.59,24.62,4
1.00,0.02,-0.20,-31.01,3.36,7.14,40.69,2.51,26.42,4
0.97,0.03,-0.17,-37.41,6.10,-1.10,40.69,2.83,26.75,4
0.98,-0.00,-0.24,-38.39,2.20,-10.50,40.70,5.80,27.11,4
0.98,-0.04,-0.20,-13.12,-2.44,0.85,41.03,7.85,26.79,4
0.98,-0.03,-0.21,2.08,-0.67,0.43,40.21,8.14,27.84,4
0.93,-0.06,-0.21,59.33,-0.37,-10.19,40.77,7.52,29.24,4
1.01,-0.00,-0.22,71.41,-3.42,-6.23,40.34,4.94,26.04,4
0.99,0.01,-0.19,33.14,-8.36,-0.73,40.89,1.81,25.16,4
0.98,0.01,-0.20,19.96,-9.09,-7.81,41.26,1.10,24.02,4
1.00,0.00,-0.19,34.06,-6.90,-0.06,41.58,0.67,22.42,4
0.99,0.01,-0.14,30.76,-13.92,-0.12,42.03,-1.21,20.26,4
0.99,0.04,-0.12,39.43,-6.41,1.28,41.81,-2.37,19.46,4
1.00,0.06,-0.12,35.77,-5.62,0.73,42.92,-3.11,16.67,4
1.00,0.09,-0.10,49.32,-1.53,6.16,42.83,-4.05,16.47,4
0.99,0.07,-0.10,36.56,5.31,0.24,42.82,-5.98,13.66,4
0.95,0.07,-0.08,27.95,3.05,-2.26,42.70,-7.02,13.53,4
0.93,0.07,-0.10,9.28,2.99,-9.58,42.20,-7.24,12.34,4
1.23,0.08,-0.14,34.79,24.41,-12.15,42.85,-7.02,12.45,4
1.01,0.07,-0.13,17.94,0.18,-1.53,42.24,-6.99,11.21,4
1.02,0.11,-0.09,10.13,-6.71,-5.37,42.86,-6.80,10.21,4
0.99,0.06,-0.13,-1.89,-2.56,-11.47,42.83,-7.43,9.92,4
1.00,0.07,-0.12,-1.40,-3.72,-6.29,43.48,-6.52,10.47,4
0.99,0.05,-0.11,15.20,-6.35,-3.91,43.82,-6.07,9.18,4
0.99,0.05,-0.10,32.96,-6.47,-9.03,44.75,-5.69,8.94,4
0.95,0.02,-0.10,36.13,-0.67,-10.93,44.86,-5.22,7.18,4
1.02,0.03,-0.09,28.02,4.09,5.80,45.19,-4.35,6.48,4
1.03,0.04,-0.06,23.86,-2.99,7.45,44.86,-5.96,3.85,4
0.97,0.04,-0.08,31.74,-9.77,8.12,43.97,-6.20,2.93,4
0.99,0.03,-0.09,20.32,-10.50,-8.24,43.88,-6.65,1.55,4
1.05,0.09,-0.04,20.32,-10.07,6.16,44.51,-5.97,1.43,4
0.99,0.16,0.01,15.38,-7.81,3.72,44.36,-6.46,-0.65,4
0.93,0.07,0.02,23.32,-3.23,-5.55,44.48,-6.36,-3.48,4
1.01,-0.04,-0.00,37.60,14.95,-23.80,44.92,-4.72,-3.80,4
1.05,0.01,-0.06,36.68,8.48,-9.89,45.06,-3.69,-4.76,4
1.00,-0.05,-0.04,4.88,3.91,-2.20,45.76,-3.33,-3.98,4
0.99,0.08,-0.05,7.32,1.65,0.67,44.86,-3.30,-3.71,4
0.98,0.01,-0.05,15.75,1.89,-2.99,44.80,-3.48,-6.40,4
1.00,-0.05,-0.06,5.55,2.20,-12.02,45.00,-2.42,-5.36,4
1.02,-0.03,0.00,-21.30,-3.85,0.43,45.62,-1.92,-4.10,4
0.99,-0.03,-0.05,-20.94,-4.58,6.53,44.95,-2.67,-5.54,4
1.00,-0.01,-0.03,-25.09,-7.26,6.29,44.34,-3.75,-5.00,4
1.00,0.07,-0.02,-6.71,6.53,0.55,44.57,-4.66,-3.26,4
1.00,0.03,-0.02,-10.56,3.36,-13.61,44.49,-5.24,-4.49,4
1.02,-0.06,-0.03,14.16,2.38,-16.91,45.73,-4.97,-4.42,4
1.05,0.01,-0.01,-30.33,1.95,-9.70,45.91,-3.76,-4.54,4
1.00,-0.05,-0.05,-27.59,-5.68,2.56,45.81,-3.54,-3.36,4
1.00,-0.06,-0.04,-13.55,-2.08,5.55,45.90,-4.52,-2.54,4
1.00,-0.03,-0.04,-23.68,0.37,0.92,45.70,-4.37,-1.40,4
1.00,-0.01,-0.01,-44.68,-2.01,12.57,46.20,-4.43,-0.16,4
1.02,0.01,-0.05,-26.43,-7.14,6.29,45.61,-5.52,0.66,4
1.00,-0.03,-0.01,-14.95,-3.11,13.31,45.13,-5.63,0.66,4
0.99,0.01,0.01,-18.55,1.04,9.58,44.93,-6.37,1.59,4
0.98,-0.04,-0.01,-17.09,-0.85,-10.01,44.17,-6.40,2.86,4
0.99,-0.00,0.00,-27.95,-4.58,18.31,44.57,-6.43,3.43,4
0.99,0.10,0.00,-18.43,-2.75,14.47,44.60,-6.80,4.66,4
0.98,0.06,0.02,-23.32,-13.73,-2.99,44.63,-8.00,4.14,4
0.99,0.09,0.00,-27.65,2.08,-7.51,44.52,-7.25,5.18,4
0.97,0.04,0.01,-40.83,11.60,1.28,45.20,-6.97,5.03,4
0.98,0.04,-0.02,-21.85,0.67,-12.02,45.12,-6.74,7.15,4
1.03,-0.00,-0.04,2.44,5.31,-28.02,45.80,-4.92,8.40,4
1.05,-0.02,-0.04,-14.04,7.14,-0.18,46.51,-2.65,9.22,4
0.98,-0.01,-0.03,-27.53,7.93,27.59,45.42,-4.88,11.47,4
0.98,0.03,-0.09,-24.72,15.56,14.71,45.28,-4.99,11.47,4
1.00,0.02,-0.10,-38.45,-7.81,-12.57,44.04,-5.18,12.93,4
0.95,0.02,-0.13,-25.45,3.23,0.43,44.79,-3.71,14.65,4
0.98,0.04,-0.10,-15.32,-2.50,-2.38,45.26,-2.71,15.21,4
0.99,-0.01,-0.07,-24.11,1.77,11.23,44.65,-3.08,16.54,4
1.02,0.01,-0.11,-19.96,-0.79,-13.24,43.95,-2.26,17.81,4
0.99,-0.02,-0.10,40.59,-3.17,-17.52,44.35,-1.38,16.81,4
1.00,-0.02,-0.10,78.12,-3.17,-15.01,45.00,-3.37,14.62,4
1.04,-0.08,0.00,40.22,-17.21,0.61,45.36,-4.50,11.43,4
1.00,-0.03,-0.06,-27.59,12.82,28.56,45.26,-4.04,11.34,4
0.99,0.02,-0.06,-70.31,2.87,13.18,44.02,-5.09,14.48,4
1.00,0.05,-0.13,-14.95,-0.49,-7.93,43.75,-3.58,17.92,4
0.98,0.02,-0.14,76.42,-12.02,-16.48,44.46,-3.30,16.00,4
0.95,-0.03,-0.04,124.02,4.52,-14.47,44.80,-3.28,12.67,4
0.95,-0.03,-0.07,56.70,-4.39,21.91,44.80,-5.69,8.47,4
1.02,-0.02,-0.08,66.71,-1.77,-5.00,44.89,-7.02,4.70,4
1.04,0.05,-0.07,62.62,-1.10,-0.12,44.86,-6.05,2.27,4
1.00,0.07,-0.04,55.05,4.15,-10.01,44.20,-5.69,1.25,4
0.94,-0.07,-0.04,56.58,-12.94,-6.29,44.64,-4.70,-2.47,4
1.00,0.03,0.02,23.07,-0.67,-1.46,44.29,-3.33,-5.09,4
1.04,0.01,-0.04,53.16,-8.67,-3.60,45.13,-2.65,-5.32,4
1.03,0.03,-0.02,54.93,3.36,3.05,44.64,-1.93,-8.04,4
1.02,0.00,0.01,65.67,-9.83,22.22,45.42,-0.99,-9.99,4
0.99,0.15,0.10,80.75,-16.66,21.42,42.98,-1.95,-14.09,4
0.96,0.10,0.11,70.92,-9.46,32.71,42.64,-1.03,-15.95,4
0.94,0.13,0.12,48.34,-9.28,18.80,42.26,-0.48,-17.43,4
0.99,0.10,0.05,45.84,4.82,6.29,41.26,1.42,-19.89,4
1.00,0.12,0.06,33.45,3.36,2.93,41.46,2.55,-21.68,4
0.97,0.14,0.09,29.05,-7.75,7.39,41.37,4.19,-22.02,4
0.97,0.15,0.06,23.80,4.76,0.06,41.11,4.75,-22.84,4
0.96,0.09,0.13,24.60,10.25,-2.81,42.26,7.01,-22.53,4
0.99,0.09,0.08,26.06,-1.95,1.59,42.81,7.79,-21.74,4
0.96,0.10,0.13,16.54,0.43,-12.63,43.02,9.84,-22.24,4
0.97,0.05,0.10,20.94,0.67,-1.71,42.43,11.19,-21.72,4
1.03,0.10,0.11,24.48,21.42,0.73,43.09,12.33,-21.75,4
1.01,0.11,0.06,-6.10,-5.98,-2.14,43.35,12.68,-21.07,4
0.98,0.04,0.08,7.39,-3.85,2.81,43.58,12.82,-21.26,4
0.98,0.11,0.14,3.30,-9.16,-4.27,43.42,12.73,-20.54,4
1.02,0.10,0.08,6.41,-8.12,-24.05,42.63,12.88,-22.08,4
0.97,0.06,0.11,24.48,4.58,2.44,42.26,14.86,-22.80,4
0.93,0.02,0.16,6.29,0.67,10.13,42.64,14.94,-22.34,4
0.98,0.06,0.09,11.96,-0.31,18.31,42.82,14.50,-22.45,4
0.99,0.12,0.13,7.39,-2.08,4.33,43.09,14.82,-22.22,4
0.95,0.09,0.15,44.56,-1.46,-0.67,42.82,15.30,-20.95,4
0.97,0.09,0.17,44.62,-12.70,-1.77,42.42,18.60,-22.42,4
1.04,0.02,0.22,7.26,1.34,2.14,41.76,21.14,-23.03,4
1.00,0.10,0.17,8.36,5.68,5.62,41.42,20.10,-23.60,4
0.98,0.08,0.20,37.84,18.07,11.60,42.55,21.07,-21.50,4
0.98,0.05,0.17,11.72,7.08,-2.81,43.10,22.19,-20.25,4
0.99,0.07,0.14,-4.58,-1.28,-6.59,43.98,22.36,-19.02,4
1.00,0.03,0.17,-18.62,0.61,-9.34,43.24,23.27,-19.58,4
0.99,0.06,0.15,-49.13,5.25,-3.36,43.62,22.36,-19.40,4
0.99,0.07,0.11,-45.53,2.01,-4.39,43.76,20.47,-19.08,4
0.98,0.08,0.12,-36.44,-4.21,3.23,42.61,17.80,-20.91,4
1.00,0.10,0.11,-33.75,2.08,-2.81,42.96,17.04,-21.98,4
0.99,0.10,0.07,14.22,-1.04,2.01,42.69,15.56,-21.14,4
0.98,0.09,0.09,61.28,3.23,-1.16,43.14,17.47,-21.59,4
0.98,0.05,0.19,61.65,2.32,-2.14,43.44,20.90,-19.32,4
1.00,0.06,0.11,37.17,2.62,4.09,43.71,21.53,-19.01,4
1.01,0.06,0.13,33.87,0.92,0.73,43.32,23.69,-18.91,4
0.96,0.03,0.14,37.29,6.10,-0.18,43.57,25.33,-17.31,4
0.99,0.00,0.14,16.42,-0.61,-9.09,44.06,27.03,-16.56,4
0.98,-0.01,0.14,2.32,-1.16,5.00,43.70,27.69,-17.03,4
0.97,0.05,0.11,0.43,5.62,6.29,43.68,26.14,-16.37,4
0.98,0.05,0.09,22.22,2.69,-1.89,44.89,26.59,-15.61,4
1.00,0.05,0.10,33.69,3.78,-0.61,44.57,27.00,-12.81,4
0.99,0.03,0.11,44.43,5.98,4.64,45.01,27.62,-14.45,4
0.98,0.04,0.10,42.11,4.46,2.01,45.17,28.14,-12.05,4
1.02,0.03,0.09,36.93,-0.73,0.31,45.62,29.74,-11.17,4
1.00,0.01,0.12,62.38,-6.10,-4.82,45.61,31.43,-7.89,4
1.00,-0.01,0.13,52.80,4.46,-0.61,45.86,33.53,-6.26,4
1.00,-0.03,0.09,14.22,5.07,1.95,45.65,33.29,-5.13,4
0.97,0.02,0.11,0.49,6.53,9.58,45.74,33.28,-4.82,4
0.97,0.04,0.11,8.00,2.01,9.22,46.22,33.50,-4.88,4
0.96,0.01,0.11,56.76,4.64,6.10,46.36,32.81,-3.96,4
1.00,0.02,0.06,70.25,0.92,19.65,46.97,32.01,-1.92,4
0.97,0.13,0.08,48.16,-8.73,9.89,47.52,32.17,1.28,4
1.05,0.08,0.11,15.50,-7.26,-18.37,47.71,31.64,1.97,4
1.06,0.11,0.10,2.75,-1.28,0.12,47.55,33.33,1.06,4
0.98,-0.13,-0.22,-74.46,-8.42,8.91,47.01,33.23,1.53,4
1.01,0.27,0.32,-109.92,-19.53,34.24,47.08,28.76,-4.74,4
0.86,0.18,0.14,-26.00,3.42,-9.22,47.44,28.02,-6.29,4
1.04,0.37,0.18,78.12,28.08,-5.55,47.64,27.95,-4.93,4
0.97,0.14,0.07,-7.63,13.00,-5.00,47.68,29.39,-1.59,4
0.94,0.12,0.05,41.08,5.43,-15.38,47.39,30.19,-0.40,4
0.95,0.14,0.09,-0.43,-3.48,-0.31,47.80,31.35,0.32,4
0.98,0.11,0.06,20.57,1.46,-6.59,47.66,32.41,1.59,4
1.01,0.10,0.07,32.78,-8.24,-3.17,47.55,31.92,1.92,4
0.96,0.12,0.13,26.12,-18.07,-25.82,47.55,32.90,0.11,4
0.96,0.01,0.18,32.90,-15.08,-7.57,46.55,34.56,0.28,4
1.12,0.06,0.20,10.56,-5.25,9.77,47.23,33.61,1.22,4
1.04,0.07,0.13,17.21,0.43,25.63,47.28,33.04,1.04,4
0.98,0.14,0.09,-0.73,-29.24,24.11,47.20,31.02,1.57,4
0.86,0.02,0.27,7.75,-16.17,-3.05,46.80,29.17,-0.54,4
0.96,0.09,0.22,13.37,2.38,-5.25,47.09,30.75,-0.22,4
0.96,0.11,0.19,7.87,13.12,4.03,46.53,30.70,0.15,4
0.96,0.10,0.19,16.48,-1.59,3.17,46.68,30.20,1.10,4
1.04,0.09,0.19,12.08,7.08,-13.49,47.08,31.12,1.95,4
0.91,0.09,0.20,23.50,-0.92,13.55,46.56,30.44,2.69,4
0.96,0.07,0.21,12.33,8.54,-9.03,46.59,30.22,2.67,4
1.03,0.14,0.16,1.83,8.48,-14.77,46.58,30.51,3.02,4
1.04,-0.02,0.21,-6.35,5.86,-36.93,46.56,32.67,3.44,4
0.87,0.02,0.18,7.02,16.36,48.58,45.97,33.44,3.42,4
0.95,0.08,0.12,6.10,14.65,20.02,47.17,31.03,7.35,4
1.02,0.02,0.14,4.52,12.94,-0.18,47.28,30.05,6.34,4
0.98,0.08,0.14,10.68,0.06,14.16,47.44,30.10,8.23,4
1.00,0.12,0.12,14.40,10.68,1.53,46.97,29.11,8.42,4
0.96,0.09,0.09,22.64,11.11,-12.33,46.67,29.02,9.53,4
0.99,0.09,0.08,24.17,0.18,-21.61,47.02,29.93,10.24,4
1.01,0.02,0.06,22.34,-4.88,-13.37,46.46,31.10,10.90,4
1.01,0.02,0.12,25.15,1.71,-2.44,46.14,31.47,11.32,4
0.96,-0.01,0.11,22.83,-10.31,-7.08,46.17,30.79,12.28,4
0.98,-0.05,0.13,24.90,-5.13,-5.86,46.30,31.10,10.35,4
0.98,-0.07,0.14,20.81,8.24,0.73,45.84,31.34,10.45,4
0.97,-0.05,0.13,6.29,-18.74,7.69,46.12,31.05,12.16,4
1.01,-0.04,0.16,-8.18,-17.33,-3.36,46.13,30.25,10.58,4
0.99,-0.05,0.18,11.35,-4.27,-3.66,46.57,30.36,10.28,4
1.00,-0.04,0.23,11.47,-9.83,3.48,46.42,30.32,8.09,4
0.96,-0.05,0.25,-20.02,-12.82,-2.69,47.31,29.86,8.29,4
0.97,-0.01,0.21,-52.19,-5.98,9.16,47.09,30.07,5.82,4
1.02,0.04,0.19,-34.48,-2.38,-4.39,47.19,29.65,4.80,4
1.03,0.01,0.23,-22.46,3.54,-25.02,46.67,30.99,6.09,4
0.95,-0.07,0.26,-15.26,3.66,-17.70,46.31,33.17,2.70,4
0.96,-0.07,0.24,-0.98,-0.43,-2.38,45.72,33.52,3.44,4
0.96,-0.07,0.26,0.49,-0.61,-5.25,45.64,33.98,2.59,4
0.96,-0.10,0.25,-14.95,-0.43,-12.45,45.01,34.46,4.49,4
1.00,-0.04,0.23,-41.99,12.39,-22.58,45.09,35.44,3.47,4
0.97,-0.09,0.23,-46.81,-1.34,-6.04,44.38,36.87,2.09,4
0.96,-0.00,0.23,-46.26,-8.30,-0.24,44.09,37.18,0.17,4
0.96,-0.05,0.28,-9.70,4.58,0.55,43.43,36.95,-1.51,4
0.94,-0.05,0.26,15.38,9.95,16.85,43.53,35.86,-1.46,4
0.94,-0.02,0.28,26.92,-3.36,4.64,45.15,35.01,-0.17,4
0.97,-0.03,0.20,30.82,15.50,6.53,44.90,34.38,0.67,4
0.96,-0.09,0.21,15.50,3.54,-1.59,44.87,33.70,1.93,4
1.00,-0.04,0.21,22.83,-3.11,2.38,45.25,34.29,3.14,4
1.01,-0.05,0.19,23.62,8.24,10.50,45.80,33.33,4.24,4
0.94,-0.02,0.18,21.91,5.43,10.31,45.52,32.74,4.50,4
0.94,-0.03,0.21,17.94,-1.71,2.26,45.92,31.85,6.14,4
1.00,-0.05,0.21,-12.02,-3.36,22.83,46.28,31.04,6.01,4
1.04,0.00,0.18,-2.87,-6.23,-6.23,46.63,30.60,5.15,4
1.00,0.00,0.18,27.40,-16.60,6.23,46.04,30.30,4.08,4
0.99,0.03,0.24,53.65,-0.06,29.17,46.30,29.47,5.46,4
1.00,0.04,0.21,64.15,3.54,26.73,46.08,26.98,7.73,4
0.88,-0.07,0.29,30.94,-6.90,1.22,46.77,24.26,7.29,4
0.98,0.07,0.24,5.92,-0.49,-6.65,46.61,24.73,9.00,4
0.90,0.07,0.13,8.67,-14.71,-2.50,46.46,25.88,8.42,4
0.98,0.04,0.26,14.53,-3.54,-3.54,46.30,25.89,7.43,4
0.99,0.05,0.24,16.66,3.91,11.47,45.56,25.51,7.60,4
0.96,0.04,0.27,34.79,-4.46,29.05,46.85,22.97,9.28,4
0.93,0.02,0.30,15.20,-1.40,12.39,46.73,21.68,7.71,4
0.99,0.03,0.26,0.49,2.75,-18.37,46.14,21.58,9.75,4
1.00,-0.02,0.29,-9.64,-1.95,-18.55,45.59,23.36,8.18,4
0.97,-0.04,0.28,-6.84,-4.76,-31.01,45.68,24.27,6.99,4
0.96,-0.03,0.30,4.70,-1.77,13.24,45.68,26.95,7.95,4
0.93,0.04,0.24,17.27,4.94,18.68,45.03,25.49,8.46,4
0.97,-0.02,0.28,21.97,7.32,18.55,45.54,23.82,8.64,4
0.98,0.02,0.24,21.85,5.19,7.81,45.64,22.85,9.40,4
0.97,0.03,0.28,7.93,1.65,11.84,45.70,21.15,10.53,4
0.91,0.02,0.27,-18.68,0.37,-14.04,46.22,20.98,10.73,4
0.98,0.00,0.22,-42.91,-5.19,-15.81,45.74,22.74,11.08,4
0.96,0.04,0.22,-26.18,-5.07,-12.33,45.67,24.11,9.55,4
1.01,-0.04,0.27,-5.98,-0.06,-20.14,45.56,24.94,8.95,4
0.97,-0.02,0.24,-4.21,-3.48,-9.22,45.00,27.14,8.65,4
0.97,-0.03,0.26,4.88,-1.53,1.28,45.04,27.60,7.19,4
0.99,-0.03,0.27,22.64,16.78,12.39,45.30,25.89,10.71,4
0.97,-0.01,0.26,21.67,-3.11,5.68,45.70,25.24,10.28,4
0.98,-0.03,0.24,20.87,0.92,-2.50,45.56,25.13,11.11,4
0.97,-0.02,0.22,6.53,1.65,9.58,44.93,23.66,12.72,4
1.01,-0.05,0.22,5.13,4.52,0.55,45.53,23.67,11.78,4
0.97,-0.03,0.23,8.61,1.77,-2.01,45.45,23.54,11.34,4
0.98,-0.05,0.22,19.41,0.79,-1.46,45.23,23.88,12.78,4
0.97,-0.05,0.21,19.29,0.18,1.28,45.75,23.51,12.16,4
0.97,-0.03,0.19,-3.30,1.71,2.50,45.84,23.40,12.27,4
0.97,-0.02,0.21,6.71,-1.04,7.20,46.09,22.67,13.75,4
0.98,-0.03,0.21,19.53,0.18,5.86,45.61,22.16,12.66,4
0.95,-0.01,0.19,46.88,9.70,14.53,45.97,20.35,13.33,4
0.99,-0.03,0.17,41.08,9.40,6.41,45.96,17.77,14.67,4
0.98,-0.00,0.12,40.89,8.67,-0.43,45.91,17.36,14.66,4
1.00,-0.02,0.10,61.04,14.77,20.94,45.43,16.14,15.27,4
1.02,-0.01,0.11,48.28,12.45,10.19,45.42,13.33,16.89,4
1.00,-0.02,0.11,38.88,2.14,-2.87,45.15,11.69,18.23,4
0.98,-0.01,0.11,19.41,-6.90,0.61,44.90,11.24,15.70,4
0.98,-0.00,0.12,-25.27,-5.92,6.16,44.78,10.28,16.52,4
0.97,0.00,0.12,-13.37,-2.99,0.98,45.51,10.79,17.05,4
1.00,-0.00,0.13,-0.55,-3.91,-0.61,45.69,11.57,16.66,4
1.00,-0.00,0.14,14.77,-0.98,0.73,45.50,10.58,17.48,4
0.98,0.01,0.14,-10.86,-2.62,12.51,45.15,10.03,16.67,4
0.98,0.02,0.14,-10.25,2.75,11.47,45.50,8.78,16.83,4
0.99,0.05,0.12,-4.39,6.23,9.16,45.30,8.37,17.60,4
0.99,0.06,0.12,-17.52,2.01,-3.11,44.98,8.67,18.49,4
0.99,0.05,0.11,-29.48,-0.37,-15.26,45.39,9.20,17.70,4
1.02,0.03,0.11,-19.35,0.98,-4.03,45.24,11.45,18.09,4
1.01,0.03,0.12,20.14,-1.40,0.55,45.03,11.17,18.18,4
1.00,0.02,0.12,42.85,-0.79,8.61,45.00,10.30,17.00,4
1.00,0.04,0.12,24.11,-3.91,11.41,44.79,9.09,16.26,4
0.99,0.05,0.12,-11.96,-0.31,-1.83,44.80,8.18,17.11,4
1.00,0.06,0.10,-9.83,0.31,3.17,45.31,8.59,16.75,4
0.98,0.06,0.12,-17.15,-2.20,0.61,45.24,8.61,16.24,4
0.99,0.07,0.13,-18.74,-2.99,-1.83,44.79,8.36,16.21,4
0.97,0.07,0.15,-24.48,-2.01,-7.39,45.36,9.63,18.12,4
0.99,0.05,0.13,-11.23,-5.55,-5.07,44.81,10.53,17.38,4
1.00,0.05,0.16,9.16,-5.80,-1.16,45.14,11.24,17.98,4
0.97,0.05,0.16,35.95,-5.49,9.58,45.57,10.96,16.56,4
0.98,0.06,0.15,42.85,3.23,6.23,45.32,8.51,16.02,4
0.99,0.06,0.15,33.87,3.85,-0.98,45.37,7.58,14.84,4
1.00,0.05,0.15,16.54,6.04,-1.53,44.73,6.80,15.47,4
1.00,0.04,0.14,3.30,0.31,-1.10,44.49,7.02,15.03,4
1.00,0.02,0.14,24.29,6.04,-1.65,44.68,7.29,15.48,4
0.98,0.02,0.13,25.15,6.71,-0.73,44.92,6.63,15.49,4
0.98,0.03,0.12,17.52,4.52,1.95,44.45,5.70,15.37,4
1.00,0.03,0.11,1.65,0.92,3.23,44.48,4.91,15.41,4
1.00,0.05,0.10,-8.00,4.39,2.87,44.82,4.97,17.36,4
0.99,0.05,0.10,-24.78,3.72,-1.28,44.13,4.93,17.31,4
0.98,0.04,0.08,-27.83,-0.18,-4.58,44.21,6.56,17.59,4
0.98,0.02,0.09,10.07,1.95,-8.85,44.37,6.74,17.70,4
1.00,0.01,0.09,36.01,-0.43,-1.10,44.09,6.86,18.21,4
1.00,0.00,0.09,26.43,0.55,-0.92,43.92,6.46,17.86,4
1.00,0.01,0.10,23.80,1.28,4.03,43.98,5.14,17.20,4
1.01,0.01,0.07,24.84,5.37,7.08,43.87,4.41,16.83,4
1.01,0.02,0.08,9.03,2.26,5.13,43.74,3.03,16.72,4
0.98,0.04,0.07,24.78,3.17,-1.16,43.23,1.64,16.98,4
1.02,0.05,0.05,14.53,13.85,0.92,43.18,0.39,17.77,4
0.98,0.04,0.03,28.93,2.87,0.24,42.96,0.79,17.58,4
1.01,0.03,0.05,21.36,7.75,5.07,42.49,-0.60,16.87,4
0.98,0.01,0.01,16.78,1.34,0.24,42.42,-0.87,16.38,4
0.98,0.05,0.03,-0.49,7.69,3.48,42.40,-1.72,16.10,4
1.01,0.05,0.01,-20.20,9.46,-0.61,42.65,-1.72,18.01,4
1.02,0.03,-0.05,-66.47,10.19,-6.29,42.20,-0.48,19.30,4
1.01,-0.01,-0.05,-37.35,-0.31,-18.13,41.48,2.64,21.00,4
1.00,-0.03,-0.05,-15.50,-1.28,-17.40,41.80,5.04,22.18,4
0.98,-0.05,-0.03,13.92,-3.11,-2.75,42.18,5.82,22.77,4
0.99,-0.05,-0.03,41.38,-3.85,0.37,42.24,5.60,20.23,4
0.99,-0.05,-0.03,56.03,-3.60,3.54,42.46,3.92,20.51,4
1.00,-0.02,-0.01,22.89,-1.22,4.21,42.74,1.70,18.60,4
0.99,-0.01,-0.02,-1.04,0.73,0.61,43.27,1.28,18.31,4
1.00,-0.03,-0.04,9.83,1.77,-0.31,43.15,1.64,17.79,4
0.99,-0.03,-0.04,13.43,-1.22,4.52,42.50,0.72,17.47,4
0.99,-0.02,-0.03,16.24,-2.08,-0.55,42.75,0.39,17.18,4
1.00,-0.01,-0.03,38.27,-2.38,-1.40,42.43,-1.20,17.40,4
1.01,-0.03,-0.03,26.79,6.04,8.48,42.81,-1.37,15.00,4
0.96,0.01,-0.05,38.45,0.92,7.45,42.03,-2.39,15.49,4
0.98,0.02,-0.04,40.59,-7.93,3.78,41.83,-4.08,13.81,4
1.02,0.03,-0.01,38.57,-2.69,10.80,42.03,-5.41,12.05,4
0.99,0.03,-0.01,-31.25,11.66,9.89,42.32,-5.99,11.25,4
0.99,0.04,-0.03,-62.81,1.34,-6.29,42.02,-5.13,13.79,4
1.01,0.03,-0.06,-84.23,1.10,-15.26,41.93,-3.36,17.05,4
1.00,-0.01,-0.08,-95.21,3.85,-21.48,42.02,0.93,19.08,4
1.03,-0.14,-0.14,-110.96,-4.39,-3.66,42.43,3.76,21.41,4
1.00,-0.08,-0.08,-21.79,3.91,-1.71,42.38,7.21,22.61,4
0.96,-0.05,-0.08,-17.09,-0.24,-0.98,42.20,7.95,22.81,4
1.00,-0.05,-0.04,-54.93,-6.90,16.60,42.19,9.27,22.64,4
1.02,-0.05,-0.04,-76.17,-17.15,12.27,42.09,9.86,21.96,4
0.96,-0.01,0.01,-53.53,-4.46,2.14,43.37,11.33,23.88,4
0.98,-0.01,-0.02,-45.59,0.85,10.99,42.55,13.02,22.66,4
1.04,-0.00,-0.04,-24.54,3.05,4.46,42.19,13.99,23.41,4
1.00,-0.01,-0.02,-25.63,6.53,-1.22,42.24,14.62,24.08,4
0.99,0.01,-0.03,-28.20,0.61,3.66,42.55,15.64,24.78,4
1.01,0.02,-0.04,-36.68,-7.39,11.96,41.83,16.10,24.38,4
0.96,0.02,-0.01,-40.16,-2.69,5.55,41.89,16.87,23.44,4
1.00,0.01,-0.03,-40.59,-5.68,-0.37,42.66,17.72,23.27,4
1.00,0.03,-0.01,-37.90,-1.16,1.16,42.50,19.87,22.89,4
0.99,0.03,0.00,-9.22,0.49,6.77,43.24,19.93,22.64,4
0.99,0.04,-0.00,-9.34,-0.55,2.81,43.36,19.64,21.44,4
1.00,0.06,-0.02,-8.73,0.06,2.81,43.46,19.70,21.22,4
1.00,0.06,-0.04,-14.59,-3.91,-0.24,43.07,19.75,22.53,4
1.00,0.06,-0.02,-9.58,-2.69,-1.34,42.94,20.21,22.00,4
1.00,0.05,-0.01,-14.65,-3.66,7.75,43.80,20.53,21.61,4
0.99,0.05,0.01,-28.08,-4.39,-6.41,43.66,20.79,21.48,4
1.03,0.03,-0.00,-27.16,-3.05,-4.46,43.91,22.22,19.32,4
0.99,0.07,0.01,-20.81,-1.89,5.25,44.19,22.74,19.19,4
0.99,0.06,-0.01,-14.47,-0.85,1.16,44.18,22.80,19.07,4
0.99,0.07,0.00,-14.83,-2.50,1.34,43.48,23.27,19.38,4
0.99,0.06,0.01,-17.52,-3.85,-8.24,43.80,23.39,18.58,4
1.00,0.03,0.01,-12.57,-7.26,-11.29,43.52,24.80,18.09,4
0.99,0.01,0.02,-14.47,-2.08,-6.47,43.80,26.72,16.55,4
0.98,0.03,-0.00,-20.81,0.18,0.73,43.75,26.53,18.29,4
1.00,0.01,0.01,-23.13,-2.44,-12.08,43.97,28.25,16.50,4
1.00,-0.02,0.06,-19.10,-0.55,0.73,44.03,29.14,17.21,4
1.02,0.02,0.05,-13.85,0.00,10.44,43.47,29.32,16.02,4
1.01,0.01,0.05,-20.20,-5.13,-1.77,44.27,29.33,15.44,4
0.97,-0.02,0.06,-24.72,-6.71,-4.58,43.76,29.92,14.45,4
0.98,0.01,0.06,-21.79,-2.93,-5.55,44.02,31.48,14.58,4
0.99,-0.02,0.07,-22.77,-5.49,-0.79,43.97,31.32,13.70,4
1.09,0.05,-0.03,5.62,16.91,24.48,44.38,31.43,12.59,4
0.94,-0.01,0.12,-26.67,-10.80,-22.77,44.53,31.75,12.12,4
0.85,-0.03,0.18,-25.15,13.06,-11.78,43.95,33.92,10.14,4
0.99,-0.02,0.03,-14.53,10.19,-12.76,42.91,35.67,10.12,4
1.00,-0.17,0.11,-24.35,5.43,2.81,43.02,35.85,10.17,4
0.96,-0.01,0.09,-42.48,-14.16,-10.62,43.18,36.66,9.25,4
1.02,-0.04,0.05,-21.61,7.14,12.33,42.69,37.23,7.75,4
1.04,-0.05,0.06,-25.70,11.72,2.69,43.35,36.69,7.76,4
0.99,-0.09,0.12,-16.42,-23.80,-11.54,42.61,37.49,7.17,4
0.99,-0.07,0.14,-0.31,-9.70,4.21,42.08,38.01,4.87,4
0.96,-0.06,0.12,-11.60,-9.03,4.94,42.13,37.70,1.65,4
0.94,-0.08,0.12,-20.45,-12.94,-4.88,42.65,37.59,1.23,4
1.03,-0.08,0.15,-13.55,7.02,3.05,42.91,38.06,1.40,4
0.99,-0.06,0.14,-29.05,16.60,-9.46,42.80,37.48,1.56,4
0.99,-0.03,0.12,-34.85,-6.04,-15.63,42.11,38.54,0.85,4
0.99,-0.02,0.16,-25.70,-18.19,-6.10,42.00,39.64,-0.65,4
0.96,-0.07,0.14,-38.94,-5.55,2.20,41.42,38.46,-1.75,4
1.00,-0.05,0.17,-36.99,-0.98,-11.66,41.87,37.74,-4.94,4
0.98,-0.07,0.20,-37.78,2.38,-7.45,41.54,36.89,-7.63,4
1.00,-0.08,0.13,-24.84,4.82,-8.97,41.03,36.93,-7.17,4
1.01,-0.13,0.17,-43.76,19.10,-7.93,41.86,37.10,-7.10,4
0.97,-0.07,0.13,-75.32,8.67,2.81,41.08,36.39,-8.22,4
1.01,0.00,0.16,-57.07,-1.40,-2.99,41.67,34.84,-10.19,4
1.01,-0.07,0.13,-35.71,-7.51,-16.85,40.55,33.26,-10.88,4
0.97,-0.06,0.15,-31.13,-8.79,-25.45,39.75,33.92,-15.22,4
1.03,-0.02,0.17,-27.95,0.12,2.26,39.37,34.23,-14.47,4
0.99,-0.08,0.16,-4.70,-4.39,3.11,39.22,33.40,-16.08,4
0.99,-0.09,0.14,-17.82,4.39,-3.54,39.56,32.25,-16.67,4
1.00,-0.05,0.17,-34.06,16.54,15.26,39.65,31.60,-15.69,4
1.00,-0.07,0.17,-28.20,-3.54,0.98,39.81,31.12,-17.61,4
0.99,-0.05,0.14,-41.26,-0.49,-6.84,39.53,29.55,-18.36,4
0.97,-0.07,0.14,-18.55,-21.12,-17.21,39.11,28.96,-19.47,4
0.98,-0.04,0.15,-8.67,-3.66,-2.38,38.22,28.48,-21.48,4
0.98,-0.08,0.19,-10.62,0.31,-1.22,38.55,28.86,-20.62,4
0.98,-0.07,0.18,-20.20,-7.26,-0.73,38.46,28.98,-20.79,4
1.00,-0.06,0.19,-16.66,4.09,1.53,39.00,27.25,-20.84,4
0.97,-0.07,0.18,-21.85,2.38,1.53,39.00,26.03,-22.16,4
0.98,-0.04,0.18,-32.29,3.72,-4.21,39.00,25.27,-21.84,4
1.01,-0.02,0.14,-17.21,3.23,-1.28,38.67,23.05,-21.53,4
0.98,-0.04,0.16,3.48,1.46,-3.30,38.67,22.85,-21.33,4
0.99,-0.04,0.16,4.09,0.79,-0.37,39.10,23.10,-22.71,4
0.98,-0.03,0.15,24.48,-10.56,6.04,39.28,23.68,-21.83,4
0.97,-0.05,0.21,48.58,-16.54,-0.31,38.62,24.68,-21.59,4
0.98,-0.09,0.22,25.45,-5.13,0.43,37.98,27.51,-22.60,4
0.99,-0.12,0.23,3.30,0.37,-0.12,37.88,28.45,-20.76,4
0.97,-0.08,0.22,-19.78,0.24,-1.95,37.82,27.82,-21.70,4
0.98,-0.06,0.21,-30.76,3.11,-0.43,38.51,26.70,-22.90,4
0.98,-0.05,0.21,-18.80,0.73,0.06,38.49,24.94,-21.37,4
0.98,-0.04,0.20,-24.11,1.40,0.92,38.57,23.54,-22.90,4
0.98,-0.02,0.20,-4.82,-1.22,0.79,38.06,23.61,-22.20,4
0.98,-0.02,0.18,0.31,-0.43,-2.69,38.31,23.52,-24.04,4
1.00,-0.04,0.22,14.04,-5.49,6.29,38.24,23.63,-24.61,4
0.95,-0.07,0.28,-13.85,-2.75,7.02,37.73,23.94,-23.12,4
0.96,-0.00,0.21,-27.47,3.72,-6.84,37.99,22.38,-23.01,4
0.98,-0.03,0.18,-17.52,4.88,-11.29,38.48,21.96,-24.77,4
1.01,-0.04,0.19,-6.41,-1.04,-1.83,38.02,21.28,-24.18,4
0.96,-0.04,0.20,-11.41,2.69,3.85,37.52,20.85,-22.99,4
1.00,-0.00,0.21,10.01,1.83,5.92,37.99,20.37,-23.71,4
0.93,-0.04,0.26,-35.28,3.78,-6.53,38.00,20.35,-22.80,4
1.02,0.02,0.14,-56.21,13.49,-9.77,38.68,17.85,-23.60,4
1.01,0.01,0.16,-38.02,-2.75,3.17,38.81,15.87,-24.07,4
0.99,0.03,0.15,-11.05,1.83,5.92,39.16,14.48,-23.17,4
1.00,0.03,0.10,57.92,-12.51,10.74,39.49,14.62,-24.07,4
0.97,0.02,0.23,65.31,-12.39,10.86,38.65,17.27,-22.84,4
0.95,0.01,0.20,69.27,-10.74,1.28,38.51,20.17,-23.38,4
0.97,-0.01,0.22,80.51,-5.00,-2.81,37.79,24.98,-23.85,4
0.97,-0.09,0.26,76.17,-0.79,1.59,37.29,28.08,-22.74,4
0.96,-0.11,0.24,42.91,6.16,1.77,37.22,31.97,-20.53,4
0.98,-0.11,0.21,25.51,3.23,5.00,37.96,33.62,-18.52,4
0.98,-0.09,0.20,23.86,7.20,5.25,38.45,34.13,-18.05,4
0.98,-0.10,0.19,20.39,0.37,7.57,39.00,34.14,-16.47,4
0.99,-0.09,0.18,5.37,-0.61,2.01,39.27,34.14,-16.16,4
0.98,-0.08,0.17,8.54,2.20,6.53,39.94,34.25,-15.06,4
0.97,-0.05,0.17,17.40,2.08,4.64,39.83,33.67,-14.83,4
0.99,-0.08,0.16,39.79,0.73,0.18,39.94,34.81,-14.62,4
0.98,-0.10,0.16,28.75,0.98,1.77,40.73,36.23,-13.10,4
0.99,-0.10,0.15,12.57,-5.00,1.46,40.09,36.55,-11.27,4
1.02,-0.04,0.04,-12.21,-21.06,7.57,39.72,36.83,-11.79,4
0.99,-0.08,0.25,18.68,-6.96,-5.00,39.32,35.55,-13.92,4
1.00,-0.09,0.19,36.74,3.30,-2.08,39.75,36.67,-12.01,4
0.98,-0.10,0.19,59.33,2.50,3.23,39.67,38.66,-9.57,4
1.02,-0.13,0.19,27.28,4.94,7.57,40.45,38.55,-7.14,4
0.97,-0.06,0.15,-6.59,4.46,28.08,40.73,38.21,-5.91,4
1.01,-0.04,0.16,27.28,1.34,18.31,42.19,36.44,-5.98,4
0.99,-0.02,0.16,11.29,-2.69,18.62,42.40,35.38,-3.56,4
0.98,-0.00,0.15,28.14,-3.36,9.28,43.03,34.46,-4.44,4
0.95,-0.00,0.12,40.89,-7.51,-1.59,43.01,34.33,-4.79,4
1.00,0.00,0.20,42.72,-2.01,-6.23,43.37,34.72,-4.09,4
1.01,-0.04,0.21,12.21,-8.42,-3.30,42.94,36.21,-2.67,4
0.99,-0.03,0.17,5.55,0.85,12.21,43.60,35.05,-3.33,4
1.01,0.02,0.15,6.10,15.50,21.97,43.60,34.55,-2.36,4
1.04,-0.01,0.08,25.70,37.41,10.50,44.62,33.76,0.82,4
0.99,0.05,0.08,36.38,34.36,-14.40,43.75,34.55,3.59,4
1.02,-0.05,0.02,-21.73,8.67,11.90,44.24,34.75,6.04,4
1.00,-0.01,0.06,-1.16,-31.01,2.14,45.08,34.12,6.84,4
1.03,0.03,0.15,-1.59,-45.53,9.89,44.58,33.65,3.89,4
1.00,0.01,0.16,5.31,-33.69,-2.26,44.84,33.06,0.40,4
0.96,0.02,0.18,8.12,8.36,-0.18,44.43,33.17,-1.42,4
1.00,0.02,0.16,28.26,38.76,-5.37,44.87,34.03,1.01,4
1.01,-0.02,0.13,32.29,28.32,3.23,45.23,33.31,2.61,4
1.00,0.07,0.09,44.37,-10.19,6.77,44.85,33.33,5.90,4
0.97,0.01,0.13,40.83,0.18,-1.77,45.39,33.08,6.24,4
1.01,-0.04,0.10,34.00,11.54,12.21,44.97,32.07,8.58,4
0.99,0.01,0.10,19.90,15.01,6.29,45.09,31.47,9.23,4
0.99,0.06,0.02,4.46,3.97,16.60,45.10,29.94,10.52,4
1.02,0.03,0.05,3.36,14.59,0.49,45.29,28.78,12.61,4
0.99,0.04,0.01,7.75,8.00,-5.92,44.64,28.53,12.94,4
1.00,0.04,0.02,33.02,-0.31,-18.01,45.13,29.27,13.93,4
1.00,0.01,0.04,40.53,1.04,-10.13,44.38,29.82,15.11,4
1.04,0.01,0.02,17.27,5.07,6.23,43.69,29.38,16.87,4
1.00,-0.00,0.02,1.83,-1.34,0.06,44.09,28.37,15.36,4
1.00,0.00,0.03,-0.73,-16.91,-11.11,44.19,28.61,15.41,4
0.97,-0.05,0.11,4.76,-47.00,-14.53,43.96,29.82,14.14,4
1.01,-0.08,0.14,5.55,-9.28,-4.58,44.46,30.90,11.07,4
0.96,-0.05,0.18,16.85,-10.93,1.10,44.49,31.30,8.92,4
0.97,-0.05,0.20,13.43,3.85,11.41,44.27,31.18,10.30,4
0.98,-0.01,0.16,-9.83,-6.41,3.11,44.60,29.61,10.67,4
1.00,0.00,0.15,-31.13,7.51,15.87,45.32,29.09,10.11,4
1.01,0.01,0.13,-17.94,3.30,8.54,45.53,28.67,9.78,4
0.97,0.00,0.13,-19.04,16.17,-3.97,45.67,28.92,10.88,4
0.99,0.04,0.07,4.33,46.45,-2.62,44.69,29.77,11.16,4
0.98,0.00,0.02,6.41,5.43,-6.16,43.63,29.94,15.66,4
1.00,-0.00,0.03,11.66,5.86,-8.54,43.32,30.60,15.75,4
1.00,-0.02,0.02,10.13,-1.53,-4.70,43.21,30.51,16.71,4
1.00,-0.04,-0.00,16.30,0.37,-1.16,43.10,30.94,16.17,4
1.01,-0.03,0.02,16.24,-11.96,-2.26,43.33,30.55,16.89,4
1.00,-0.03,0.04,20.45,-7.75,-2.75,43.33,30.13,17.08,4
1.00,-0.03,0.06,16.66,-16.54,-7.51,43.71,30.14,16.64,4
0.99,-0.06,0.07,12.88,-9.64,-9.28,44.13,29.92,15.47,4
0.99,-0.06,0.12,11.96,-34.48,1.77,44.56,30.09,15.15,4
1.06,0.00,0.09,37.84,9.58,8.00,44.24,29.42,14.38,4
0.99,-0.04,0.09,26.92,-18.86,-0.24,44.10,28.61,14.36,4
1.01,-0.14,0.17,-9.46,-5.37,-3.54,44.09,27.43,15.37,4
0.99,-0.15,0.19,-37.17,-12.15,-19.10,44.30,29.22,12.73,4
1.01,-0.09,0.18,-22.46,-25.15,-39.31,43.75,32.08,9.91,4
0.98,-0.15,0.22,52.25,-3.23,39.12,43.91,32.58,9.35,4
0.94,-0.11,0.25,20.81,-5.92,23.62,44.70,29.49,12.23,4
0.96,-0.06,0.23,26.37,-15.63,17.03,45.52,27.84,11.08,4
0.94,-0.05,0.27,38.94,7.20,4.70,45.61,25.31,10.83,4
0.94,-0.08,0.22,35.34,-0.79,21.79,45.35,23.75,11.12,4
0.97,-0.02,0.26,28.63,-1.28,11.90,45.65,22.31,12.82,4
0.96,-0.05,0.16,40.41,37.84,-4.70,45.62,21.19,13.75,4
1.03,-0.05,0.11,32.59,34.91,0.00,44.01,21.00,18.43,4
1.03,-0.04,0.05,29.17,-20.75,14.28,44.65,19.24,19.06,4
0.99,-0.04,0.14,23.99,-0.73,2.81,45.18,17.87,17.91,4
1.01,-0.04,0.08,30.15,-1.28,4.76,45.46,16.25,16.91,4
0.99,-0.04,0.11,42.24,-12.45,4.09,45.76,15.04,17.25,4
0.98,-0.03,0.15,50.05,-24.72,21.36,45.86,12.63,15.32,4
0.98,-0.00,0.19,41.87,-17.27,15.56,46.68,10.84,15.05,4
1.00,-0.01,0.20,51.57,4.39,7.02,46.13,9.20,12.30,4
0.98,-0.02,0.19,27.28,-4.82,3.05,46.20,7.78,13.34,4
0.96,-0.01,0.22,-29.72,-8.54,4.70,46.81,7.84,11.94,4
0.98,0.02,0.25,-7.69,-24.05,9.83,47.00,7.25,12.16,4
0.98,0.02,0.26,31.13,-12.27,2.38,47.55,6.75,9.34,4
0.95,0.02,0.27,19.29,1.28,6.04,47.28,5.64,8.81,4
0.92,0.03,0.25,6.59,19.65,12.33,46.39,4.54,10.90,4
0.97,0.05,0.22,4.15,36.19,13.49,46.02,4.08,10.64,4
1.00,0.07,0.15,2.08,31.19,7.63,44.65,3.10,14.23,4
1.01,0.06,0.09,3.54,30.03,-4.33,43.55,2.54,16.21,4
1.00,0.06,0.06,8.73,20.02,-1.77,43.14,2.99,17.85,4
1.00,0.06,0.04,1.53,-0.55,0.00,42.87,3.20,17.54,4
1.01,0.06,0.05,3.91,-10.07,2.14,43.12,3.09,17.54,4
0.99,0.06,0.05,33.87,-1.53,3.42,43.73,1.66,17.92,4
1.00,0.06,0.06,40.77,4.03,0.73,43.71,0.44,18.09,4
0.99,0.08,0.05,39.49,6.23,12.45,43.08,-0.94,15.71,4
0.97,0.08,0.09,33.94,33.87,1.46,42.25,-2.50,15.81,4
1.02,0.08,-0.02,-15.20,26.37,-11.23,41.87,-2.58,18.91,4
1.00,0.05,-0.06,-10.44,5.00,-13.61,41.42,-0.72,19.20,4
1.00,0.04,-0.08,-7.87,5.62,-12.02,42.15,-0.24,19.89,4
0.99,-0.03,-0.07,24.48,-3.42,-9.46,42.42,0.81,21.51,4
1.03,-0.00,-0.08,54.69,-1.10,-8.48,42.42,-0.01,19.01,4
0.98,0.02,-0.03,34.91,0.06,-6.41,42.83,-0.67,18.35,4
0.99,-0.01,-0.06,12.94,-7.81,-11.05,43.14,-1.55,17.30,4
1.04,-0.01,-0.09,42.97,-9.95,-6.10,43.58,-1.72,14.93,4
1.05,-0.01,-0.06,70.01,-15.14,9.46,43.21,-2.99,13.40,4
1.00,-0.01,-0.01,47.91,-7.93,8.18,43.95,-4.37,10.30,4
1.00,0.01,0.01,32.29,-5.86,2.38,43.95,-4.91,8.20,4
0.97,0.01,0.00,14.04,5.80,0.37,43.59,-5.25,6.47,4
1.01,0.03,-0.02,16.78,13.92,5.25,43.20,-6.09,6.36,4
0.98,0.05,-0.04,37.72,9.03,3.17,43.27,-6.40,6.62,4
0.92,0.01,0.02,29.11,6.10,1.28,43.23,-6.76,5.77,4
1.00,0.05,-0.02,1.34,-4.52,-7.20,43.01,-7.78,4.35,4
1.01,0.01,-0.07,-4.70,5.19,0.37,42.66,-7.26,4.99,4
1.00,0.05,-0.04,-6.35,0.37,-1.83,43.08,-7.43,5.60,4
1.00,0.05,-0.08,-17.21,0.12,-2.38,43.18,-7.31,7.01,4
1.00,0.04,-0.05,8.73,-8.54,5.55,42.80,-7.14,6.12,4
1.00,0.04,-0.03,15.32,-0.92,-5.92,43.73,-7.06,5.81,4
1.00,0.03,-0.03,29.17,-2.44,-1.65,43.35,-6.57,3.76,4
1.00,0.07,-0.02,-0.85,-0.61,2.38,43.14,-6.08,3.66,4
1.01,0.08,-0.05,-27.28,9.46,10.19,43.47,-7.19,4.53,4
0.98,0.07,-0.07,-41.26,23.80,20.87,42.75,-7.91,6.45,4
0.99,0.07,-0.07,-40.77,0.00,2.56,41.78,-8.68,10.01,4
1.00,0.08,-0.10,-28.63,4.82,-10.99,42.33,-7.64,11.49,4
1.01,0.05,-0.13,-20.81,9.52,-1.16,42.09,-6.91,11.22,4
0.99,0.06,-0.09,-17.40,4.58,0.55,42.83,-6.36,12.90,4
0.99,-0.02,-0.06,-20.26,-8.36,-8.18,41.96,-5.81,14.94,4
1.00,0.02,-0.11,-54.75,-22.71,-14.40,42.43,-3.87,14.60,4
0.96,-0.02,0.01,-34.67,8.30,4.58,42.92,-3.47,14.88,4
0.99,-0.01,-0.00,-57.25,4.82,5.80,42.43,-2.06,17.15,4
0.97,-0.05,-0.10,17.21,-8.12,17.03,42.30,-1.07,18.04,4
1.03,0.04,-0.10,-2.14,-13.06,-5.07,42.61,-1.83,16.93,4
0.99,-0.01,-0.11,-24.90,-10.07,-9.09,42.42,-0.84,16.15,4
1.00,-0.02,-0.04,-16.48,1.83,-0.79,43.31,1.15,15.87,4
1.01,0.03,-0.06,-19.35,13.73,8.30,43.31,1.92,16.83,4
1.05,0.00,-0.10,-31.74,14.53,4.52,42.65,2.00,20.52,4
0.94,-0.00,-0.06,-20.39,1.40,10.74,42.79,3.19,21.36,4
1.01,0.04,-0.12,-25.76,-11.29,11.35,42.44,3.31,21.02,4
1.00,0.04,-0.11,-11.11,-0.18,16.60,42.32,2.29,20.58,4
1.02,0.06,-0.14,-19.17,-17.76,-4.33,42.00,3.92,19.75,4
0.99,0.05,-0.01,-35.52,-37.29,-7.93,42.42,5.32,18.40,4
0.98,0.03,0.07,-36.68,-17.94,4.46,42.85,5.54,16.69,4
1.03,0.04,0.07,-66.47,-22.58,-5.43,43.52,7.46,15.58,4
0.99,0.05,0.06,-74.22,-16.36,8.18,43.59,9.77,16.37,4
0.95,0.06,0.04,-50.42,-1.59,2.26,43.86,10.27,16.36,4
1.01,0.11,0.05,-19.29,6.96,-8.73,43.97,11.67,14.90,4
1.00,0.08,0.06,-24.60,13.73,23.80,43.57,12.41,16.94,4
0.99,0.08,0.01,-62.13,12.39,11.11,41.71,11.99,18.33,4
0.99,0.09,-0.07,-76.05,2.93,6.23,41.58,13.39,18.71,4
0.96,0.16,-0.05,-45.78,1.28,-9.03,41.82,15.39,18.01,4
0.95,0.13,-0.09,-23.80,-0.85,-6.84,41.78,16.75,17.09,4
1.01,0.04,-0.12,-28.08,-0.37,0.49,42.22,18.44,16.52,4
0.92,0.08,-0.03,-13.73,-2.08,-0.31,42.32,18.53,17.04,4
0.98,0.14,-0.05,-35.28,2.50,6.41,42.72,18.95,16.48,4
1.01,0.13,-0.10,-23.50,5.80,-4.58,43.01,18.75,16.50,4
1.05,0.15,-0.07,-4.09,1.95,10.07,42.49,18.95,16.93,4
1.02,0.16,-0.06,26.00,-0.92,5.25,42.70,16.91,18.65,4
0.96,0.15,-0.04,61.52,-13.92,8.06,43.54,15.78,18.74,4
0.94,0.19,-0.01,75.01,-5.98,9.28,43.42,12.88,16.98,4
0.97,0.20,-0.02,75.26,14.04,-8.61,43.87,10.30,17.69,4
1.02,0.19,-0.05,60.36,12.33,-1.59,43.57,9.59,17.29,4
0.96,0.18,-0.05,47.49,8.61,-3.72,43.09,7.73,17.32,4
0.95,0.16,-0.01,15.99,9.64,-2.26,42.68,5.81,20.58,4
1.00,0.15,-0.03,1.95,7.26,-5.19,42.09,5.32,22.00,4
1.00,0.13,-0.04,-22.95,1.16,6.59,41.43,5.33,24.40,4
1.07,0.11,-0.09,-24.11,-4.52,5.62,40.23,5.86,25.06,4
0.99,0.10,-0.01,26.00,-0.49,-6.59,39.87,6.05,25.07,4
1.00,0.12,0.08,83.86,-3.97,-11.90,39.61,4.76,24.11,4
1.00,0.12,0.05,147.09,1.10,-21.12,40.25,1.26,21.31,4
0.94,0.03,0.01,206.67,10.80,-26.55,40.14,-1.23,18.74,4
0.89,0.02,0.03,78.49,2.69,0.55,41.72,-4.91,13.45,4
1.01,0.04,-0.05,45.84,-4.21,-3.66,41.36,-6.74,11.91,4
1.04,0.08,0.02,99.67,-18.55,-5.37,41.63,-7.42,7.26,4
1.01,-0.01,0.09,68.97,-10.44,-0.55,41.60,-7.30,4.61,4
1.00,-0.02,0.08,21.06,0.85,5.25,41.70,-6.92,1.61,4
0.98,-0.00,0.05,9.95,2.38,11.11,41.19,-7.67,1.43,4
1.03,0.04,0.08,12.02,10.19,10.01,40.59,-7.93,0.87,4
1.01,0.04,0.05,7.39,6.29,2.44,40.38,-8.74,1.33,4
0.96,0.02,0.04,-3.30,1.16,0.85,40.30,-8.06,1.18,4
1.02,0.04,0.07,-0.61,4.21,6.04,40.03,-8.87,1.71,4
1.00,0.06,0.05,-31.07,7.39,11.78,38.81,-9.74,1.70,4
0.99,0.10,-0.02,-48.10,-5.86,-8.18,39.39,-10.45,4.42,4
1.00,0.08,-0.02,4.64,1.89,-1.16,38.57,-10.02,4.66,4
0.99,0.06,0.07,10.44,3.91,-1.10,39.04,-9.52,5.35,4
0.99,0.03,0.00,-29.36,1.89,-1.71,38.65,-9.27,6.43,4
1.02,0.07,-0.02,-14.59,2.20,-0.18,39.00,-9.31,6.67,4
0.98,0.01,0.00,-4.39,5.31,3.36,38.73,-8.98,8.03,4
0.97,0.02,-0.01,-32.96,-0.85,-3.36,39.20,-9.36,8.76,4
1.05,0.07,-0.10,-53.77,-0.43,-4.39,39.72,-7.93,9.68,4
0.98,0.05,0.06,-3.23,-11.78,-16.72,40.06,-7.40,11.27,4
1.03,0.09,-0.01,40.47,3.78,1.53,40.25,-6.53,10.47,4
1.04,0.05,-0.00,41.75,0.00,4.64,40.81,-8.06,9.18,4
0.97,0.01,0.09,-43.52,-4.03,-8.24,41.08,-8.75,9.02,4
1.00,0.01,-0.03,-26.18,2.14,0.49,41.14,-7.87,9.66,4
0.99,0.03,-0.02,27.53,-0.92,9.70,41.87,-7.56,9.69,4
1.00,-0.06,0.04,-27.16,0.85,-1.28,41.33,-8.91,9.92,4
1.02,-0.05,-0.18,-34.85,-5.62,-10.07,41.94,-6.85,11.21,4
1.03,-0.03,-0.22,-25.15,-18.86,1.65,42.29,-6.69,11.63,4
1.01,0.01,-0.12,-10.25,-19.71,-16.54,43.07,-6.29,11.43,4
0.94,-0.01,-0.01,-2.44,-11.72,-18.62,43.66,-4.32,10.25,4
1.02,-0.00,0.07,44.25,5.07,6.04,43.41,-3.74,9.63,4
1.04,-0.02,0.12,58.53,10.99,7.45,43.31,-4.28,8.52,4
0.97,-0.11,0.09,-1.22,-2.14,-12.02,43.32,-4.49,7.01,4
0.95,-0.08,0.00,-6.90,-6.47,-16.48,44.08,-2.69,7.85,4
0.93,-0.07,-0.00,19.04,19.84,15.26,43.25,-2.16,8.28,4
1.00,-0.02,-0.05,25.39,24.90,12.70,42.87,-3.12,9.22,4
0.96,-0.02,-0.05,-29.05,-5.37,4.27,42.68,-3.20,8.58,4
0.98,-0.00,0.06,-39.55,-11.05,4.27,42.79,-3.16,9.97,4
0.99,0.03,0.01,-32.29,0.55,17.21,42.52,-3.78,8.85,4
1.05,0.07,-0.01,-39.18,4.64,26.67,41.32,-4.68,11.08,4
1.01,0.05,0.05,-81.18,-9.09,15.01,41.52,-5.53,12.26,4
0.99,0.06,0.05,-143.98,-14.28,7.26,41.33,-4.49,14.92,4
1.01,0.12,0.04,-133.12,-16.54,1.95,42.04,-0.93,18.85,4
0.99,0.10,0.04,-105.04,-25.02,6.16,42.44,3.15,20.12,4
0.99,0.08,0.04,-74.28,2.20,-1.10,43.31,4.64,21.17,4
1.02,0.09,0.04,-33.45,13.24,-27.22,42.40,7.54,20.64,4
1.01,0.07,-0.02,-55.54,-4.58,0.31,42.86,11.30,23.21,4
0.99,0.13,0.01,-49.07,-12.63,11.72,44.13,11.38,23.39,4
0.97,0.14,0.00,-24.41,-13.85,4.64,44.51,12.41,21.91,4
1.04,0.10,0.02,15.20,2.81,-1.28,44.67,12.34,21.77,4
0.99,0.11,0.03,-20.02,-4.58,4.88,44.53,13.13,22.23,4
1.00,0.13,-0.08,-78.67,-8.48,17.03,44.87,12.55,20.13,4
1.04,0.32,-0.04,-59.94,5.25,6.59,44.47,15.11,21.79,4
0.94,0.22,-0.02,-7.45,-0.24,21.30,44.14,15.53,20.32,4
0.92,0.17,0.02,10.99,-7.02,23.19,43.85,14.43,19.87,4
0.93,0.20,0.07,23.19,-9.40,-0.73,43.23,13.06,21.08,4
0.97,0.11,0.11,46.69,-2.56,-33.69,42.69,14.69,21.44,4
1.00,0.09,0.11,55.79,1.04,-22.28,42.61,15.32,21.46,4
1.02,0.09,0.10,18.98,-7.02,5.49,43.02,14.65,20.36,4
1.06,0.17,0.11,-10.01,-22.58,51.70,42.93,12.73,20.62,4
0.94,0.19,0.10,-18.07,10.25,18.37,43.05,9.75,19.75,4
0.93,0.22,0.11,-21.97,13.18,-2.20,42.03,10.08,21.41,4
0.99,0.21,0.04,32.35,5.80,-4.52,42.29,10.73,23.12,4
0.97,0.20,0.07,17.70,12.63,9.46,41.52,9.56,23.11,4
0.99,0.22,0.10,29.11,-6.35,-11.35,41.83,7.85,24.45,4
0.99,0.21,0.05,23.01,-18.49,-12.39,41.36,8.02,23.00,4
0.92,0.16,0.11,35.64,-4.52,-12.21,41.81,7.80,21.20,4
0.90,0.11,0.10,12.57,19.17,-28.87,42.00,8.42,20.64,4
1.04,0.09,0.10,24.35,2.01,-8.48,41.75,8.95,21.03,4
1.03,0.21,0.08,38.02,-1.40,-13.92,41.99,8.53,23.11,4
0.97,0.06,0.14,40.59,-0.92,3.85,42.02,7.62,21.92,4
1.03,0.11,0.04,58.29,-2.56,25.88,41.16,4.21,21.89,4
0.96,0.09,0.09,47.06,2.44,1.22,40.54,1.43,20.72,4
0.93,0.09,0.02,52.98,1.04,-1.71,40.61,0.77,20.17,4
1.08,0.06,0.09,67.75,-4.70,12.45,40.76,-1.71,18.32,4
0.96,0.07,0.15,78.61,21.97,-13.67,40.88,-3.71,14.56,4
1.00,0.04,-0.05,137.45,30.58,3.91,40.81,-4.57,13.44,4
0.96,0.06,0.03,191.83,20.69,10.74,40.22,-6.51,11.02,4
1.00,0.05,0.01,48.58,-23.07,1.77,40.48,-8.70,5.08,4
1.00,0.02,0.09,10.01,-12.02,-24.96,40.45,-8.56,2.42,4
0.99,-0.01,0.08,-42.54,-2.14,-11.96,41.49,-6.67,1.90,4
1.05,-0.04,0.09,-67.26,5.62,-3.54,41.60,-6.57,2.51,4
1.00,0.00,0.02,-68.12,1.28,-6.10,41.22,-6.60,6.79,4
0.99,-0.03,0.07,-39.00,3.91,-5.13,41.35,-5.26,8.85,4
1.00,-0.04,0.07,-19.59,0.06,-3.85,41.92,-3.78,9.77,4
1.03,-0.01,0.14,-20.02,-2.32,-2.81,41.75,-3.31,9.70,4
1.00,-0.06,0.08,-4.15,-6.90,-5.49,41.67,-3.36,9.67,4
0.99,-0.08,0.02,37.54,-1.71,6.53,41.99,-2.65,9.16,4
0.94,-0.05,0.16,-44.07,8.00,10.80,42.00,-3.09,8.26,4
0.97,-0.01,0.05,-147.71,-3.60,9.22,41.89,-2.43,14.15,4
1.03,0.05,0.03,-88.99,-10.86,-6.90,42.07,0.18,15.70,4
1.03,0.04,0.05,8.67,-11.78,-4.03,42.63,1.95,17.57,4
0.99,-0.00,0.08,46.26,-10.74,-11.60,43.25,2.05,15.47,4
0.99,-0.05,0.12,27.22,-0.67,-14.34,43.14,2.00,13.82,4
1.02,-0.04,0.12,-36.44,5.55,4.09,43.32,3.25,13.38,4
0.99,-0.06,0.15,-84.11,-3.91,0.18,43.69,4.38,14.95,4
0.96,0.02,0.15,-75.68,-0.49,-1.53,43.84,6.45,15.06,4
1.00,0.03,0.10,-80.51,-2.81,5.80,43.85,7.87,16.09,4
1.01,0.05,0.12,-75.99,-1.95,3.05,44.67,8.61,16.91,4
0.98,0.10,0.14,-60.06,3.97,-4.64,44.57,10.66,17.88,4
1.04,0.10,0.11,-39.73,5.00,-2.99,44.34,11.96,18.27,4
1.00,0.11,0.15,24.96,-30.58,9.46,43.43,12.77,16.71,4
0.98,0.08,0.09,92.22,-17.33,28.08,44.71,11.36,15.05,4
0.96,0.11,0.14,75.07,15.20,4.46,45.00,7.52,13.38,4
1.00,0.10,0.16,-10.44,17.15,-12.51,44.31,7.21,13.66,4
1.01,0.08,0.12,-86.00,3.97,6.90,44.48,9.42,15.26,4
1.00,0.13,0.12,-80.93,-11.66,-4.46,44.30,10.16,14.29,4
1.00,0.12,0.04,-31.37,-11.54,12.82,44.68,12.04,13.15,4
0.93,0.14,0.12,-49.50,1.16,-6.16,44.57,12.34,13.61,4
1.04,0.13,0.23,8.73,2.87,-21.48,43.71,14.28,13.23,4
0.92,0.02,0.03,85.75,21.42,-38.02,43.49,15.97,13.11,4
0.97,0.01,-0.01,-147.03,-22.46,42.11,43.33,16.21,13.06,4
1.03,0.15,0.09,-131.04,7.51,-14.34,43.43,17.04,12.33,4
0.99,0.11,-0.06,-82.03,-1.53,17.21,43.07,19.20,12.11,4
1.03,0.21,0.01,-14.65,0.98,3.66,43.46,19.37,11.07,4
0.99,0.16,-0.04,44.62,-0.06,-31.92,43.59,19.20,12.17,4
0.98,0.12,0.01,77.88,2.81,-34.36,43.13,21.35,13.18,4
1.03,0.02,0.05,110.96,-1.40,-25.82,42.37,21.40,15.10,4
1.02,-0.05,0.02,117.19,-3.11,-15.20,43.05,21.24,15.78,4
1.01,-0.07,0.09,88.44,-13.00,15.20,42.91,17.71,16.76,4
0.98,-0.03,0.12,52.19,-0.98,10.50,43.49,14.60,16.78,4
0.99,-0.04,0.12,17.03,2.56,0.12,43.25,12.57,17.27,4
0.98,-0.02,0.12,3.17,6.47,-2.14,43.29,12.74,17.82,4
0.96,-0.01,0.07,8.97,6.41,-2.20,43.55,12.63,17.38,4
0.98,-0.01,0.06,-16.60,-0.61,13.79,43.16,11.52,18.68,4
1.01,0.02,0.05,-4.39,2.50,-2.08,43.09,12.21,19.15,4
1.01,0.03,0.01,-0.92,3.23,-0.67,43.38,11.84,17.88,4
0.99,0.02,0.02,20.63,2.26,-1.16,43.41,11.69,18.65,4
0.98,0.02,0.03,37.29,3.72,-2.20,42.60,10.29,20.12,4
0.99,-0.00,0.03,54.57,8.42,-5.19,42.81,9.16,19.52,4
1.01,0.03,-0.02,64.21,11.05,0.85,42.48,8.22,19.85,4
1.00,-0.00,0.02,27.77,9.16,-5.43,42.08,6.10,19.53,4
1.00,-0.01,-0.01,-17.03,2.44,4.46,41.93,5.99,20.56,4
1.00,-0.02,-0.05,-53.16,-8.67,4.64,42.04,6.40,22.27,4
1.02,-0.01,0.04,-55.73,-10.86,-1.77,42.04,7.39,21.09,4
0.97,0.01,-0.01,-21.85,-0.98,-2.44,42.42,9.56,23.46,4
0.97,0.01,0.04,7.08,-4.76,0.79,41.77,9.53,22.96,4
0.99,-0.01,0.05,43.82,-5.49,1.95,42.00,8.20,21.50,4
0.98,0.00,0.01,62.38,13.85,2.44,41.20,7.37,21.57,4
1.00,0.03,-0.01,-14.22,4.88,15.08,41.15,5.46,21.72,4
1.06,0.04,0.04,-37.17,-5.43,-6.04,41.50,5.81,22.40,4
1.00,0.02,0.01,-22.95,-2.87,-9.09,41.64,8.17,23.14,4
1.01,-0.01,0.03,-35.71,-9.70,0.92,41.83,9.73,22.75,4
1.04,-0.03,0.01,48.34,-4.52,-34.12,42.13,10.46,22.27,4
0.96,-0.10,-0.00,62.99,9.58,-40.53,42.76,10.94,22.35,4
0.96,-0.11,0.01,8.91,-8.06,13.37,42.64,10.05,21.37,4
1.00,-0.08,0.02,0.67,-6.84,32.35,42.81,7.45,21.59,4
1.02,0.01,0.03,-13.12,-10.80,39.61,42.69,6.65,22.47,4
0.99,0.05,0.06,6.04,-2.75,10.38,42.03,3.70,20.62,4
0.94,0.02,0.07,-5.25,6.35,-41.20,42.14,4.31,20.65,4
1.02,-0.06,0.01,-23.44,13.18,-52.37,43.05,9.74,23.17,4
0.98,-0.12,0.02,-1.34,-6.04,-16.60,42.38,11.45,22.56,4
1.00,-0.13,0.04,29.24,2.81,-4.82,42.90,11.60,21.29,4
0.99,-0.12,0.00,21.24,-4.70,7.57,43.40,10.67,23.02,4
0.99,-0.10,0.05,-19.35,-13.67,41.93,43.25,7.73,21.24,4
1.00,-0.02,0.07,-32.23,-14.71,31.43,43.71,6.75,20.58,4
0.99,0.02,0.09,2.56,1.89,4.52,43.20,6.32,20.41,4
0.98,-0.01,0.08,-12.45,5.62,-22.83,43.38,6.62,19.32,4
1.01,-0.04,0.12,-18.13,-0.06,-15.56,42.92,9.38,20.87,4
0.96,-0.11,0.06,-11.17,9.52,-54.93,43.42,10.21,20.06,4
0.98,-0.18,-0.01,27.95,6.41,-38.94,43.38,15.88,20.20,4
0.98,-0.22,-0.02,64.82,-2.62,-0.06,44.04,15.99,22.13,4
0.99,-0.16,0.01,-13.73,-0.12,25.21,44.24,13.13,22.05,4
1.01,-0.13,0.01,-51.70,-12.21,33.45,44.30,12.81,20.52,4
1.00,-0.09,0.04,-19.53,-7.32,27.22,43.97,11.49,21.53,4
0.98,-0.08,0.06,0.55,2.14,0.92,44.13,11.07,18.81,4
0.94,-0.09,0.05,3.17,0.79,-5.68,44.41,11.10,20.69,4
1.00,-0.10,0.01,6.96,-4.21,-15.50,44.57,11.57,19.89,4
1.01,-0.09,0.01,52.43,-2.93,19.53,44.95,11.72,19.62,4
1.02,-0.01,0.03,27.04,21.00,48.83,43.80,7.37,19.63,4
1.04,0.09,-0.03,-7.32,5.92,41.99,42.77,3.16,20.74,4
1.01,0.10,-0.00,13.12,1.71,11.72,42.72,2.15,21.35,4
0.96,0.09,0.00,8.97,2.26,0.98,42.37,0.85,19.89,4
0.99,0.11,0.02,-14.71,4.39,51.88,41.87,-0.43,20.97,4
0.97,0.22,0.01,-34.30,3.30,30.76,39.61,-2.92,21.72,4
0.96,0.27,-0.14,-59.08,3.42,-30.03,39.44,-1.78,21.80,4
0.96,0.18,-0.15,-83.74,-14.16,-36.93,40.34,3.87,23.54,4
0.99,0.13,-0.13,-29.79,-7.87,-11.78,41.43,9.30,24.80,4
0.99,0.12,-0.11,73.06,-0.06,-1.22,41.75,8.89,23.13,4
