Acc_X,Acc_Y,Acc_Z,Gyr_X,Gyr_Y,Gyr_Z,Mag_X,Mag_Y,Mag_Z,Posture
-0.96,-0.00,0.12,11.90,-14.59,4.70,-40.69,24.07,-21.70,4
-0.97,-0.03,0.10,24.05,-9.95,12.51,-40.49,26.15,-20.53,4
-0.96,-0.02,0.06,10.50,-1.65,2.93,-41.16,28.58,-18.55,4
-0.97,-0.03,0.10,4.27,0.37,-1.65,-41.98,28.20,-18.86,4
-0.98,-0.04,0.10,14.10,1.77,-1.77,-41.93,28.45,-19.45,4
-0.98,-0.02,0.11,27.47,0.12,1.83,-41.42,29.32,-18.97,4
-0.98,-0.02,0.13,13.12,3.97,-4.64,-41.56,29.57,-19.08,4
-0.99,-0.04,0.09,11.35,-4.88,7.81,-40.88,31.20,-19.29,4
-1.00,-0.09,0.07,-1.71,4.27,-2.56,-40.72,31.85,-18.47,4
-0.97,-0.08,0.08,7.26,-2.01,3.11,-40.76,31.87,-18.35,4
-0.98,-0.08,0.06,11.66,1.34,1.53,-41.36,32.90,-18.16,4
-0.98,-0.08,0.09,9.95,5.00,-4.70,-40.44,33.02,-17.53,4
-1.01,-0.06,0.12,8.36,-2.26,0.67,-40.59,33.04,-17.99,4
-0.98,-0.07,0.09,1.22,-1.89,-3.17,-41.52,33.86,-17.61,4
-0.98,-0.10,0.08,12.39,-4.33,5.62,-41.33,34.39,-16.80,4
-0.97,-0.09,0.07,5.92,2.93,-3.78,-41.09,34.70,-17.02,4
-0.98,-0.10,0.08,14.16,-1.95,4.33,-41.27,34.41,-17.65,4
-0.98,-0.16,0.04,23.86,-4.46,1.77,-40.95,35.85,-16.70,4
-1.00,-0.10,0.08,28.14,-1.22,-0.61,-40.49,36.08,-15.94,4
-0.97,-0.08,0.09,23.86,1.34,-4.27,-40.67,36.96,-15.76,4
-0.98,-0.09,0.06,21.73,-3.11,3.23,-40.91,37.57,-14.26,4
-1.00,-0.16,0.02,27.77,-3.05,2.93,-40.86,39.15,-14.27,4
-0.99,-0.09,0.04,30.33,-8.12,1.71,-41.56,40.00,-12.27,4
-0.95,0.01,0.10,13.67,16.48,-8.24,-41.64,40.64,-10.27,4
-0.94,-0.07,0.03,7.75,-0.55,5.43,-41.93,40.48,-11.01,4
-0.99,-0.14,0.03,1.28,-0.49,-2.81,-41.43,40.86,-10.91,4
-0.98,-0.07,0.06,5.19,2.75,-2.01,-40.44,40.76,-11.63,4
-0.97,-0.16,0.04,1.22,-0.06,-5.98,-41.41,40.93,-10.28,4
-0.96,-0.07,0.05,-2.20,1.22,-1.10,-41.47,40.81,-11.66,4
-0.99,-0.12,0.06,5.31,-9.95,6.65,-41.67,40.69,-10.67,4
-0.99,-0.14,0.05,-12.63,-1.16,-6.47,-41.76,41.03,-10.52,4
-0.96,-0.13,0.00,-8.24,1.65,-6.53,-41.77,40.84,-10.57,4
-1.04,-0.08,0.04,-14.34,-1.59,-11.29,-42.27,39.34,-10.57,4
-0.99,-0.07,0.01,0.67,-9.46,1.71,-42.46,39.14,-12.15,4
-0.96,-0.08,0.01,-16.78,7.87,-3.66,-42.20,38.82,-10.86,4
-0.97,-0.03,0.06,-23.19,12.08,-8.91,-42.44,37.49,-12.06,4
-0.97,-0.09,0.06,3.05,-15.50,9.03,-42.24,37.66,-13.34,4
-0.99,-0.06,0.04,21.30,-13.43,3.48,-42.60,39.07,-11.65,4
-1.02,-0.06,0.03,30.09,-0.37,-13.85,-42.69,39.10,-10.71,4
-0.95,-0.09,-0.02,60.24,-6.53,0.92,-42.76,39.39,-8.37,4
-0.96,-0.04,-0.04,42.05,-10.07,6.90,-42.94,41.98,-5.91,4
-0.99,-0.13,-0.06,40.10,-6.59,5.00,-42.36,43.37,-5.24,4
-0.98,-0.00,-0.00,28.38,-8.48,-15.38,-42.10,43.18,-1.59,4
-1.04,-0.08,-0.03,25.88,-3.97,-1.46,-43.29,42.52,-1.75,4
-0.92,0.03,-0.05,37.78,5.00,13.00,-42.25,43.77,-1.32,4
-0.94,-0.09,-0.04,4.76,-3.11,12.76,-41.59,44.32,-0.62,4
-0.95,-0.07,-0.06,-4.03,-2.99,0.06,-41.85,45.20,-0.18,4
-1.01,-0.13,-0.02,-7.51,5.49,-15.08,-41.83,44.26,-0.72,4
-0.94,-0.07,-0.10,-3.48,-12.15,-2.99,-42.21,43.96,1.90,4
-1.02,-0.04,-0.06,2.87,-5.86,-14.40,-42.98,43.25,0.52,4
-0.98,-0.05,-0.13,2.14,-13.55,-3.54,-43.30,42.83,2.67,4
-0.88,-0.05,-0.10,2.50,12.94,1.34,-43.65,42.59,3.15,4
-0.96,-0.07,-0.19,-5.37,-43.76,-65.67,-45.24,38.05,1.75,4
-0.93,0.22,-0.10,-11.66,6.23,16.36,-46.01,35.49,3.88,4
-0.97,0.15,-0.10,8.85,23.32,25.76,-45.56,36.22,2.73,4
-1.00,0.06,-0.07,8.48,5.25,19.71,-44.73,38.83,2.32,4
-1.01,0.07,-0.10,13.92,-24.66,3.72,-43.66,40.08,3.02,4
-0.96,0.00,-0.15,22.71,-20.20,17.03,-44.12,40.99,5.82,4
-1.21,0.08,-0.25,11.72,-35.16,25.45,-43.31,41.71,5.92,4
-0.92,-0.13,-0.17,66.53,19.23,37.05,-41.66,44.40,6.23,4
-0.98,-0.03,-0.07,54.69,6.41,4.27,-41.44,44.48,8.78,4
-0.98,-0.15,-0.17,49.99,5.80,-6.77,-41.53,43.60,11.87,4
-1.02,-0.17,-0.18,60.61,4.33,3.17,-40.80,43.31,11.57,4
-0.96,-0.06,-0.10,4.15,4.58,3.23,-41.63,42.20,13.96,4
-0.97,-0.02,-0.06,1.65,6.41,-2.44,-41.67,41.80,12.15,4
-0.95,-0.06,-0.07,29.72,7.08,-3.17,-42.11,41.38,14.01,4
-0.96,-0.04,-0.06,39.67,0.37,-20.08,-42.38,39.78,14.18,4
-1.02,-0.02,-0.10,27.40,5.92,-10.99,-42.94,37.49,16.27,4
-0.98,0.00,-0.09,19.71,-4.21,10.31,-42.94,36.49,17.55,4
-0.98,-0.03,-0.11,18.74,-1.95,-0.37,-42.93,36.94,17.90,4
-1.01,-0.02,-0.16,19.59,-7.08,14.65,-42.55,37.23,17.68,4
-1.01,-0.05,-0.16,10.93,-1.40,4.15,-41.77,37.73,19.41,4
-0.98,-0.04,-0.15,8.48,-9.03,11.47,-41.55,38.01,20.70,4
-0.96,-0.06,-0.18,20.14,-12.51,9.89,-39.93,37.28,22.22,4
-0.97,-0.06,-0.17,17.52,-3.17,-0.37,-39.71,37.73,22.44,4
-0.99,-0.06,-0.18,7.39,0.12,-1.16,-41.00,36.24,23.58,4
-0.95,-0.05,-0.18,8.36,-2.69,4.76,-39.51,36.67,24.19,4
-0.96,-0.07,-0.18,21.42,7.45,11.72,-40.14,36.52,23.01,4
-1.00,-0.07,-0.16,31.13,1.53,5.92,-40.23,37.28,23.95,4
-0.99,-0.08,-0.17,22.95,-6.23,-2.01,-40.61,36.84,25.29,4
-0.97,-0.06,-0.20,23.38,-6.47,-0.55,-39.31,34.68,24.93,4
-0.99,-0.05,-0.19,28.50,0.24,-3.30,-39.79,33.45,27.83,4
-0.95,-0.03,-0.19,22.77,3.48,0.79,-40.05,32.73,26.97,4
-0.98,-0.04,-0.19,25.70,0.92,0.79,-39.99,30.33,27.75,4
-0.97,-0.03,-0.19,17.58,2.26,-0.85,-39.26,29.68,29.06,4
-0.95,-0.02,-0.20,19.17,3.72,7.63,-39.32,29.05,27.89,4
-0.95,-0.04,-0.18,13.12,1.53,1.65,-40.15,29.22,29.48,4
-0.92,-0.02,-0.23,15.99,-1.22,3.97,-39.95,28.76,28.25,4
-0.98,-0.05,-0.18,20.20,6.90,1.46,-39.82,28.89,28.88,4
-0.96,-0.03,-0.18,26.37,9.40,4.21,-40.31,27.48,29.39,4
-0.99,-0.04,-0.14,34.67,0.61,2.99,-40.86,26.01,29.00,4
-0.97,-0.03,-0.14,34.06,-3.91,2.87,-40.88,25.13,28.25,4
-0.97,-0.03,-0.15,23.99,-6.65,7.57,-40.55,23.63,28.70,4
-0.97,-0.03,-0.17,11.66,-5.07,-1.04,-40.34,22.90,28.32,4
-0.98,-0.01,-0.23,23.38,-6.04,-6.23,-39.59,21.53,29.41,4
-0.97,-0.00,-0.22,42.05,-5.31,-3.66,-40.54,19.90,30.18,4
-0.98,-0.00,-0.17,18.80,-7.02,0.85,-39.72,17.99,31.02,4
-0.98,0.02,-0.22,11.54,-8.73,-5.19,-38.57,16.86,30.80,4
-0.96,0.06,-0.28,6.59,-13.37,-2.08,-38.99,16.39,32.41,4
-0.95,0.06,-0.27,16.17,-1.34,4.46,-38.44,15.81,32.37,4
-0.97,0.02,-0.27,17.27,6.16,6.16,-38.20,15.25,30.74,4
-0.98,0.02,-0.18,-8.06,5.68,5.62,-38.81,15.47,32.36,4
-0.99,0.01,-0.20,-46.88,3.17,-4.76,-39.25,16.36,32.23,4
-0.97,0.01,-0.22,-34.48,-2.44,-10.74,-39.15,17.69,31.65,4
-0.94,0.01,-0.22,-14.34,-4.94,0.98,-38.65,19.81,31.30,4
-0.95,0.02,-0.23,16.85,-1.95,5.55,-38.77,19.82,32.08,4
-0.99,0.00,-0.21,45.78,3.42,5.98,-38.28,17.75,33.50,4
-0.97,0.02,-0.20,42.79,1.40,-2.26,-39.01,16.98,31.54,4
-0.97,0.04,-0.19,28.44,6.53,-8.24,-39.16,14.34,31.15,4
-0.92,0.05,-0.20,26.25,5.25,-5.31,-38.50,11.98,29.98,4
-0.96,0.05,-0.18,24.35,9.64,8.91,-39.47,10.45,28.93,4
-0.98,0.05,-0.22,8.73,-2.87,8.54,-38.99,10.02,28.09,4
-0.96,0.06,-0.19,26.86,-0.37,9.46,-39.40,9.88,29.00,4
-0.98,0.06,-0.17,42.30,0.43,2.99,-39.77,8.87,27.04,4
-1.01,0.05,-0.18,25.88,14.53,-1.89,-38.85,6.20,26.88,4
-0.97,0.05,-0.17,-5.37,-3.72,22.95,-39.06,6.45,27.69,4
-1.00,0.05,-0.17,22.71,14.22,4.88,-39.92,7.59,26.04,4
-0.96,0.03,-0.12,21.42,5.62,-1.22,-40.48,7.42,24.98,4
-0.98,0.05,-0.13,3.91,-3.60,5.80,-41.14,6.30,25.13,4
-0.95,-0.06,-0.13,12.70,-2.26,3.97,-40.56,6.07,24.32,4
-1.07,0.06,-0.16,21.91,5.98,-9.77,-41.24,6.45,24.26,4
-0.95,0.09,-0.11,43.82,5.74,-10.31,-40.65,4.20,23.32,4
-0.95,0.10,-0.08,43.33,9.28,-28.99,-40.27,1.04,21.61,4
-1.01,0.16,-0.07,37.41,9.34,-15.20,-40.20,-0.71,19.52,4
-0.90,0.16,-0.03,20.32,5.43,-6.41,-39.29,-3.28,18.26,4
-0.93,0.17,-0.02,16.85,-4.21,3.85,-39.28,-3.82,18.35,4
-0.99,0.10,-0.05,7.20,-1.40,1.77,-39.94,-3.60,16.99,4
-0.97,0.15,0.00,-2.01,-5.68,-4.09,-40.31,-3.89,16.52,4
-0.96,0.16,-0.03,6.41,-4.58,-2.69,-39.25,-4.71,17.80,4
-1.02,0.17,-0.06,-8.00,8.54,12.02,-39.92,-4.03,17.88,4
-0.98,0.18,-0.05,-35.58,1.71,22.77,-40.87,-1.62,17.63,4
-1.00,0.08,-0.08,-71.53,-11.41,0.55,-41.15,-0.34,18.36,4
-0.96,0.19,-0.11,-75.87,-18.43,6.71,-40.77,2.25,23.25,4
-0.97,0.10,-0.12,-23.07,-2.62,-9.83,-39.76,4.54,25.05,4
-1.00,0.05,-0.12,-24.78,5.62,-6.77,-40.31,4.75,23.78,4
-0.98,0.08,-0.13,-42.97,-10.31,-5.31,-39.78,5.87,26.65,4
-0.96,0.08,-0.14,-37.84,-2.87,-0.31,-38.79,6.63,26.68,4
-0.94,0.09,-0.15,-30.82,2.38,3.11,-39.21,8.90,28.81,4
-0.96,0.08,-0.14,-21.91,5.68,2.14,-39.84,9.69,27.78,4
-1.03,0.03,-0.27,-15.08,-1.83,7.93,-40.26,11.36,27.93,4
-0.96,0.04,-0.10,12.08,3.97,-5.31,-40.30,12.01,27.58,4
-0.99,0.05,-0.12,18.80,14.28,9.16,-40.64,11.67,26.50,4
-1.01,0.04,-0.12,-16.66,3.72,4.03,-40.91,11.38,25.50,4
-0.98,0.03,-0.11,-53.47,-17.46,0.24,-41.42,13.55,26.21,4
-0.98,0.05,-0.14,-28.08,-10.93,-2.50,-40.87,14.94,27.14,4
-0.95,0.01,-0.16,-28.08,-5.00,8.97,-40.08,16.22,28.33,4
-0.99,-0.06,-0.15,-23.32,2.32,8.00,-40.69,18.43,29.39,4
-0.99,-0.05,-0.17,-17.70,-0.18,0.12,-40.41,19.95,29.61,4
-0.98,-0.03,-0.15,-16.60,-0.55,-1.22,-40.47,20.34,29.44,4
-0.95,-0.01,-0.14,-27.77,-1.46,1.40,-40.80,21.25,28.83,4
-0.97,-0.05,-0.17,-1.10,-1.89,2.50,-39.95,22.74,27.54,4
-0.99,-0.01,-0.13,28.26,18.07,-1.95,-40.71,22.22,28.43,4
-0.99,-0.03,-0.12,57.07,18.92,-0.18,-41.32,21.06,26.79,4
-0.96,-0.02,-0.11,55.66,-3.91,-4.76,-41.80,18.90,25.37,4
-0.99,0.01,-0.13,39.98,-0.85,-6.96,-42.35,15.33,25.94,4
-0.98,0.02,-0.12,31.80,0.43,-7.08,-41.64,13.09,25.87,4
-0.93,0.07,-0.09,40.41,2.26,0.55,-42.00,12.30,26.95,4
-0.96,0.05,-0.11,48.77,5.31,-9.83,-41.85,9.84,26.17,4
-1.00,0.07,-0.07,25.76,2.50,-3.48,-41.00,7.75,24.72,4
-0.96,0.07,-0.09,0.00,-4.52,2.99,-40.99,6.87,24.68,4
-0.98,0.09,-0.10,10.62,-0.92,7.75,-41.48,7.09,24.16,4
-0.98,0.10,-0.12,15.26,1.28,2.26,-41.72,6.99,24.10,4
-0.99,0.09,-0.11,6.10,-3.72,5.80,-41.66,6.07,22.61,4
-1.01,0.05,-0.10,20.08,0.92,-0.12,-41.85,6.25,22.62,4
-0.98,0.04,-0.09,24.05,1.04,-10.44,-41.33,4.52,23.72,4
-1.00,0.06,-0.09,4.76,-4.03,3.85,-41.37,3.92,21.98,4
-1.00,0.03,-0.09,-22.46,1.59,12.76,-41.67,4.85,21.86,4
-1.01,0.01,-0.09,-77.88,-9.46,13.12,-41.86,8.18,22.91,4
-0.98,0.05,-0.13,-56.40,-12.88,-5.13,-41.74,11.57,26.05,4
-0.97,0.02,-0.13,-38.33,-5.13,-10.74,-40.78,11.78,26.62,4
-0.92,0.03,-0.14,-61.34,-1.77,-3.11,-40.67,12.98,28.36,4
-0.99,-0.01,-0.17,-47.73,-0.18,14.10,-40.67,16.28,29.35,4
-0.98,-0.02,-0.14,-24.35,1.59,-7.14,-40.54,17.80,28.39,4
-0.97,0.01,-0.18,-21.18,3.23,-7.63,-40.66,17.90,28.78,4
-0.94,0.03,-0.17,-9.16,-0.92,-13.06,-41.49,18.16,29.15,4
-0.98,0.04,-0.17,30.03,6.47,3.23,-41.19,17.30,28.50,4
-1.04,-0.04,-0.15,19.90,0.00,-1.71,-41.61,16.20,27.19,4
-0.97,0.00,-0.14,-66.41,-12.15,-7.08,-41.60,16.94,28.06,4
-0.95,0.02,-0.14,-60.97,-18.01,-6.71,-40.59,19.54,29.46,4
-0.97,0.02,-0.21,-57.98,-18.13,-16.66,-40.20,21.92,31.26,4
-0.97,0.04,-0.23,-59.75,-4.88,-19.78,-40.47,23.55,29.85,4
-0.91,0.02,-0.26,-51.03,-9.09,-11.60,-40.83,24.73,29.19,4
-0.96,0.00,-0.24,-42.79,8.61,-5.49,-41.38,26.42,28.16,4
-0.98,0.02,-0.21,-43.52,6.04,-6.29,-41.47,28.42,28.75,4
-0.96,0.01,-0.21,-56.34,8.79,-8.30,-41.94,30.00,26.40,4
-0.97,0.01,-0.17,-50.72,19.47,-5.00,-42.48,30.82,25.46,4
-0.96,0.00,-0.17,-35.95,-15.32,-14.59,-42.53,32.30,22.78,4
-0.94,0.01,-0.10,-29.30,-10.07,-7.87,-42.81,32.36,22.23,4
-0.99,0.03,-0.13,-67.14,11.60,-1.22,-43.41,34.50,22.20,4
-1.00,-0.01,-0.16,-69.70,14.53,-0.85,-43.05,36.15,20.30,4
-0.97,0.01,-0.12,-53.65,11.90,-7.26,-43.91,38.54,16.89,4
-0.96,-0.02,-0.09,-48.77,0.00,2.26,-44.06,38.73,14.83,4
-1.00,-0.05,-0.11,-56.95,0.00,-0.85,-43.65,40.03,12.17,4
-0.97,-0.05,-0.07,-28.38,7.75,-11.17,-44.17,40.39,10.61,4
-1.00,-0.02,-0.07,-14.04,4.33,6.23,-44.58,40.32,8.58,4
-0.98,-0.00,-0.08,-17.82,7.26,2.44,-43.96,41.83,9.22,4
-1.00,-0.03,-0.07,-0.92,-4.52,22.03,-43.82,41.77,6.59,4
-0.92,-0.08,-0.02,7.57,-4.88,37.78,-42.70,44.31,7.60,4
-0.98,-0.15,-0.05,-15.50,3.05,30.94,-41.48,45.79,6.77,4
-0.99,-0.17,-0.04,-0.92,-0.49,-3.66,-39.97,46.69,7.08,4
-0.97,-0.20,-0.03,2.38,0.37,-13.12,-41.14,45.72,6.65,4
-0.99,-0.18,-0.07,12.21,-4.70,-12.94,-41.74,44.82,7.10,4
-0.99,-0.14,-0.08,-6.35,-6.04,-46.94,-41.99,43.65,8.25,4
-1.01,-0.06,-0.07,-26.49,-2.69,-14.22,-43.53,40.97,7.90,4
-0.97,-0.03,-0.09,-19.71,2.50,0.31,-44.75,40.61,7.35,4
-0.96,-0.05,-0.09,-37.41,5.98,-4.70,-44.02,40.72,5.04,4
-1.00,-0.04,-0.05,-30.88,7.45,11.78,-43.98,40.56,5.09,4
-0.98,-0.07,-0.04,-15.14,1.83,24.90,-43.42,42.21,1.88,4
-0.97,-0.12,-0.03,-15.75,6.23,30.46,-42.11,44.24,1.21,4
-1.00,-0.13,-0.00,-33.02,13.92,19.53,-41.28,46.28,-1.40,4
-1.01,-0.19,0.03,3.66,-3.72,-17.03,-40.56,46.07,-2.39,4
-0.96,-0.16,0.03,-18.49,-9.09,-13.18,-41.60,45.02,-3.43,4
-1.02,-0.18,0.02,-37.78,-4.70,-28.69,-42.61,42.98,-3.34,4
-0.95,-0.05,0.01,-48.40,9.46,-7.87,-42.91,41.11,-4.16,4
-1.01,-0.05,0.05,-46.39,22.22,-7.20,-42.88,39.36,-7.53,4
-1.02,0.05,0.05,-39.55,18.31,-42.91,-42.70,37.56,-9.47,4
-0.92,0.17,0.11,-37.35,9.03,-70.07,-43.01,32.40,-11.88,4
-0.94,0.19,0.14,-9.77,5.31,-16.11,-44.84,27.10,-12.07,4
-0.91,0.17,0.12,10.44,-5.80,12.94,-44.09,27.45,-12.92,4
-0.90,0.16,0.14,-6.35,10.99,30.40,-44.25,27.72,-12.67,4
-0.95,0.11,0.11,-29.05,-3.05,9.70,-43.01,30.15,-15.71,4
-1.01,0.13,0.06,-16.97,3.54,25.39,-42.69,30.46,-14.40,4
-0.94,0.05,0.09,8.12,31.25,47.00,-41.59,33.28,-15.93,4
-0.95,-0.06,0.15,5.80,4.82,26.06,-39.62,36.06,-16.48,4
-0.99,-0.09,0.16,1.59,2.99,22.03,-39.16,38.38,-16.87,4
-1.01,-0.14,0.13,-5.49,-12.21,-6.10,-38.62,38.54,-17.16,4
-0.98,-0.12,0.16,-8.67,-5.86,-9.64,-39.23,38.13,-17.07,4
-0.96,-0.06,0.13,-27.16,-14.04,-39.31,-39.47,37.56,-17.94,4
-1.00,0.04,0.10,-32.35,-11.05,-33.81,-41.59,34.78,-17.96,4
-1.00,0.06,0.09,-21.24,-2.99,-12.27,-41.92,30.81,-18.32,4
-0.97,0.07,0.08,-7.93,-5.37,-13.37,-42.21,29.64,-18.21,4
-0.96,0.11,0.07,-10.68,-4.39,-14.10,-42.49,28.10,-18.59,4
-1.01,0.14,0.06,-13.12,-5.55,-21.30,-42.76,27.14,-17.77,4
-0.96,0.18,0.04,-10.80,2.87,-6.65,-42.77,25.38,-18.04,4
-0.98,0.17,0.06,-8.00,2.81,0.24,-43.31,24.55,-17.07,4
-0.97,0.17,0.07,6.16,5.31,4.21,-43.09,24.08,-18.13,4
-0.99,0.14,0.08,16.97,22.28,39.73,-42.48,25.27,-20.17,4
-1.02,0.06,0.13,9.16,5.80,44.43,-39.98,29.80,-20.42,4
-0.99,-0.03,0.15,3.66,5.19,35.71,-38.85,33.08,-20.75,4
-0.95,-0.02,0.13,-11.66,-8.06,10.93,-37.65,34.22,-20.39,4
-0.97,-0.11,0.15,-17.09,5.07,6.59,-38.44,34.18,-20.35,4
-0.97,-0.06,0.15,-25.15,24.23,29.66,-37.52,33.35,-21.44,4
-0.98,-0.11,0.18,-21.97,14.34,27.89,-35.03,34.25,-24.08,4
-0.94,-0.19,0.21,-2.93,15.99,40.41,-34.25,35.34,-25.34,4
-0.93,-0.24,0.23,-14.71,4.46,31.19,-32.41,37.11,-25.22,4
-0.83,-0.29,0.28,-2.01,12.70,40.65,-31.10,38.31,-25.88,4
-0.92,-0.35,0.28,3.54,0.79,5.19,-29.46,39.65,-25.94,4
-0.90,-0.29,0.27,-11.66,-13.73,-30.09,-30.20,38.81,-25.52,4
-0.98,-0.24,0.25,-19.29,-26.43,-43.03,-32.20,36.35,-25.44,4
-0.94,-0.20,0.22,-22.28,-7.87,-11.35,-34.18,33.85,-24.24,4
-0.93,-0.15,0.23,-41.38,0.00,-22.89,-34.59,30.64,-26.17,4
-0.92,-0.11,0.23,-28.75,3.11,-12.63,-34.46,29.30,-25.89,4
-0.93,-0.15,0.28,-30.70,4.70,-0.06,-34.69,26.78,-26.46,4
-0.94,-0.08,0.25,-30.58,-7.87,12.51,-34.24,24.69,-27.56,4
-0.94,-0.10,0.21,-22.52,-18.31,11.41,-35.03,23.57,-26.92,4
-0.95,-0.06,0.18,-14.77,-13.98,8.18,-35.88,22.63,-26.33,4
-0.96,-0.11,0.16,2.32,-27.16,5.07,-36.82,22.42,-25.10,4
-0.99,-0.08,0.19,-26.31,-12.57,11.72,-39.00,23.35,-22.41,4
-0.94,-0.27,0.17,-85.69,-7.26,10.50,-39.65,20.92,-20.80,4
-0.87,-0.05,0.08,-73.30,-8.73,-21.91,-39.09,19.63,-23.19,4
-1.02,-0.10,0.14,13.67,-24.84,-18.31,-40.08,15.17,-20.61,4
-0.96,-0.05,0.08,-44.37,-11.66,5.37,-41.17,15.26,-19.74,4
-0.97,-0.11,0.10,-15.32,-8.48,10.56,-42.32,14.37,-18.29,4
-0.96,-0.15,0.09,-25.27,5.80,8.24,-41.83,14.92,-16.67,4
-0.99,-0.09,0.01,-38.02,1.22,2.81,-42.11,14.20,-17.36,4
-0.92,-0.14,0.06,-68.54,-9.03,-1.59,-42.08,12.10,-16.11,4
-1.04,-0.08,0.07,-23.56,-7.32,-5.80,-41.98,9.52,-14.84,4
-1.01,-0.09,0.15,-11.90,-0.85,-1.59,-41.47,8.98,-15.12,4
-0.96,-0.09,0.05,-9.22,-1.65,1.46,-42.32,9.53,-15.15,4
-0.98,-0.08,0.11,-23.99,-6.96,-5.31,-42.05,8.41,-14.64,4
-1.02,-0.04,0.08,-1.59,-7.08,-5.25,-42.30,7.82,-13.10,4
-0.99,-0.06,0.09,-13.18,-3.97,-7.20,-42.43,6.96,-14.37,4
-0.95,-0.05,0.08,-16.66,-7.39,-10.07,-43.05,6.73,-12.21,4
-1.01,-0.03,0.08,-19.35,1.71,-7.32,-42.07,3.94,-11.73,4
-0.98,-0.01,0.07,-5.13,9.70,4.03,-41.78,3.09,-12.08,4
-1.00,-0.02,0.12,-11.11,5.43,2.32,-40.81,4.30,-12.24,4
-0.97,-0.07,-0.10,-57.98,-1.59,-1.04,-41.55,4.10,-13.40,4
-1.02,0.02,0.08,-36.07,-19.47,-10.93,-40.77,1.88,-11.18,4
-1.08,0.03,0.13,3.60,5.49,3.60,-41.54,1.23,-10.02,4
-1.00,-0.02,0.12,10.44,1.46,0.18,-40.77,1.68,-11.11,4
-0.98,-0.05,-0.04,-17.03,-13.37,-0.98,-40.73,1.29,-9.67,4
-0.95,0.03,0.09,-28.08,1.65,1.65,-40.81,0.90,-8.76,4
-0.99,0.04,0.10,-23.68,1.65,-4.52,-41.00,-0.32,-8.18,4
-1.02,0.06,0.15,21.79,18.86,1.22,-40.52,-0.79,-9.61,4
-0.91,0.02,0.18,46.63,29.91,-13.49,-40.01,-0.27,-12.63,4
-0.95,0.03,0.23,61.89,8.00,-4.21,-38.90,1.26,-14.65,4
-0.95,0.01,0.23,68.36,15.63,4.64,-38.11,3.60,-18.31,4
-0.95,-0.10,0.29,22.34,13.61,0.92,-38.00,7.09,-20.85,4
-0.97,-0.02,0.24,-12.21,11.60,-12.08,-37.00,6.58,-20.29,4
-0.93,0.01,0.34,36.19,20.02,-11.11,-36.51,6.42,-22.28,4
-0.93,-0.06,0.34,86.98,4.27,-7.69,-35.57,8.24,-23.58,4
-0.94,-0.05,0.30,38.94,2.44,-17.40,-35.22,11.33,-24.82,4
-0.94,-0.03,0.35,-2.26,6.35,-18.86,-34.48,10.73,-25.82,4
-0.91,-0.01,0.33,23.07,-9.46,-11.47,-34.09,10.13,-25.51,4
-0.88,-0.00,0.28,7.32,-18.68,-21.24,-33.95,10.47,-26.45,4
-0.98,0.10,0.28,-39.00,-8.73,-23.01,-35.24,8.46,-23.35,4
-0.98,0.15,0.27,-5.80,-10.62,-13.18,-34.73,5.54,-22.89,4
-0.92,0.12,0.25,4.70,-21.67,-7.32,-35.42,4.82,-23.27,4
-0.95,0.12,0.21,16.78,-5.31,-12.08,-35.39,5.11,-22.07,4
-0.97,0.19,0.20,4.27,6.77,-14.71,-35.94,4.39,-22.22,4
-0.96,0.17,0.22,-1.53,6.53,-13.98,-33.63,3.70,-23.68,4
-0.96,0.17,0.32,20.14,-8.85,19.96,-33.90,2.82,-22.57,4
-0.93,0.12,0.29,81.05,1.28,21.55,-35.01,6.81,-24.13,4
-0.96,0.07,0.25,61.89,3.60,5.31,-35.60,11.66,-25.46,4
-1.02,0.04,0.29,22.03,8.48,-0.98,-35.23,15.06,-25.70,4
-0.91,0.03,0.34,47.12,27.95,4.70,-34.73,15.78,-26.86,4
-0.91,0.01,0.31,38.02,-17.70,-4.76,-32.53,19.09,-28.91,4
-0.90,0.00,0.30,25.63,-25.76,-4.03,-34.57,20.87,-26.81,4
-0.86,0.07,0.26,10.19,-21.61,-3.05,-35.55,21.29,-26.21,4
-1.00,-0.02,0.23,60.06,-13.12,5.13,-36.22,23.16,-24.40,4
-1.02,-0.07,0.20,63.23,-14.89,-0.92,-37.23,26.39,-24.35,4
-0.97,-0.07,0.19,43.03,-12.63,-0.79,-38.18,30.30,-21.09,4
-1.00,-0.11,0.18,45.10,-3.17,3.48,-38.71,33.61,-20.90,4
-0.98,-0.10,0.17,26.37,-3.66,-0.73,-39.16,34.20,-18.74,4
-0.94,-0.07,0.13,3.17,-4.39,-10.31,-39.44,35.03,-18.66,4
-0.98,-0.08,0.14,4.82,-12.70,-6.65,-39.87,34.96,-17.77,4
-0.98,-0.06,0.12,20.63,-5.62,-12.94,-41.06,34.25,-16.21,4
-1.00,-0.10,0.08,28.81,-6.35,-4.46,-41.20,34.94,-16.70,4
-1.06,-0.02,0.12,35.16,-0.12,6.84,-40.81,35.25,-14.97,4
-0.89,-0.06,0.10,17.09,9.46,-12.39,-39.88,36.73,-14.69,4
-0.95,-0.06,0.10,58.96,-16.36,37.78,-39.26,40.92,-12.43,4
-0.92,-0.08,0.05,5.00,14.22,-42.54,-39.66,40.92,-11.68,4
-1.00,-0.08,0.11,7.81,8.61,-24.60,-39.83,39.90,-12.16,4
-1.00,-0.02,0.13,25.88,-4.52,0.92,-40.71,39.84,-13.53,4
-0.97,-0.11,0.09,27.34,-6.84,7.63,-40.58,40.78,-11.06,4
-0.93,-0.10,0.04,24.41,-14.89,8.73,-40.52,42.91,-7.67,4
-0.93,-0.01,0.07,-5.80,15.81,-28.87,-41.11,41.75,-9.41,4
-1.01,-0.02,0.10,-9.64,6.35,-3.91,-41.63,40.04,-10.08,4
-1.02,0.03,0.13,-0.24,1.22,-8.30,-41.48,39.75,-11.32,4
-1.05,0.01,0.10,-20.39,0.00,-5.98,-41.97,38.83,-12.28,4
-1.00,-0.03,0.10,-2.50,-0.98,0.92,-41.83,38.67,-11.72,4
-0.97,-0.01,0.07,-4.21,-0.18,-1.71,-42.32,38.22,-10.91,4
-0.92,0.05,0.08,-0.24,3.05,-1.10,-41.76,38.42,-10.75,4
-1.03,-0.00,0.09,-39.25,15.01,-4.46,-42.24,37.07,-13.07,4
-0.94,-0.03,0.07,0.73,-12.21,7.32,-41.78,37.07,-13.73,4
-0.97,0.02,0.11,-7.81,-4.27,-3.72,-41.54,37.00,-11.98,4
-1.00,0.02,0.09,-10.07,-9.09,2.01,-42.40,36.25,-12.50,4
-1.01,0.03,0.09,24.17,-6.65,0.85,-42.20,37.46,-11.36,4
-0.99,0.01,0.04,30.70,11.96,-13.73,-42.61,37.92,-11.61,4
-0.99,0.05,0.04,38.70,-14.89,4.33,-42.90,37.62,-9.64,4
-1.03,-0.00,0.06,45.35,-19.59,-0.43,-43.62,38.51,-5.64,4
-0.96,0.00,0.07,53.77,12.57,-8.85,-43.75,38.46,-4.10,4
-0.94,-0.05,0.10,49.87,7.87,-18.86,-44.54,37.92,-3.36,4
-0.92,0.02,0.11,28.26,1.59,3.11,-44.31,36.72,-2.62,4
-0.96,0.07,0.07,19.53,1.77,24.96,-44.18,38.46,-3.37,4
-0.91,-0.05,0.10,12.27,0.12,0.49,-43.08,39.51,-2.16,4
-0.96,0.01,0.11,12.70,-0.79,-7.75,-42.92,39.44,-2.26,4
-0.98,-0.01,0.09,5.92,-1.65,1.83,-43.86,38.94,-2.00,4
-0.97,-0.01,0.09,13.12,-5.49,5.43,-43.23,38.84,0.81,4
-0.97,0.01,0.09,13.73,-8.30,-2.99,-43.80,39.62,0.16,4
-0.96,0.01,0.08,22.52,0.12,-11.41,-43.77,39.22,1.17,4
-0.99,0.03,0.04,46.08,-6.16,6.04,-44.47,37.82,1.22,4
-1.01,-0.02,0.05,17.52,-4.39,10.99,-44.45,39.43,3.09,4
-0.99,-0.02,0.07,13.06,-3.23,6.96,-43.75,40.41,4.44,4
-0.98,-0.03,0.05,19.29,0.67,1.83,-43.52,41.11,6.09,4
-0.95,-0.03,0.06,30.46,2.44,-0.61,-43.80,40.45,6.31,4
-1.01,-0.09,0.04,62.26,-12.45,38.45,-43.12,40.67,8.69,4
-0.97,-0.15,0.02,53.65,-25.27,54.14,-41.09,44.19,12.48,4
-0.99,-0.18,-0.04,49.07,5.98,-3.91,-40.89,44.40,16.39,4
-0.96,-0.17,-0.05,46.08,-0.06,-7.45,-40.69,43.77,17.48,4
-0.98,-0.15,-0.04,21.12,-1.10,-10.86,-41.61,41.93,18.51,4
-1.00,-0.13,-0.06,15.08,6.71,-17.88,-42.18,41.11,18.32,4
-0.94,-0.11,-0.06,59.14,-3.85,1.83,-41.91,38.75,20.10,4
-0.99,-0.09,-0.07,39.49,-5.80,-4.58,-41.30,37.40,21.02,4
-0.98,-0.07,-0.07,6.71,8.12,-5.43,-42.22,35.68,22.89,4
-1.03,-0.06,-0.06,2.08,-0.85,-18.74,-42.26,35.39,21.06,4
-0.98,-0.00,-0.01,-21.48,27.34,-36.99,-43.98,32.69,20.36,4
-0.99,-0.01,0.00,-4.82,7.39,8.61,-44.34,32.37,18.25,4
-0.99,-0.00,0.05,12.39,3.97,2.44,-44.87,32.68,17.41,4
-0.98,-0.01,0.04,13.31,-0.12,2.08,-44.48,33.22,18.09,4
-0.97,-0.00,0.05,30.64,-2.01,4.27,-44.36,33.00,18.86,4
-0.98,-0.02,0.04,27.59,-5.68,16.66,-43.52,32.75,18.84,4
-0.99,-0.04,0.03,16.97,-4.52,-0.61,-43.19,32.70,19.19,4
-1.00,-0.05,-0.01,31.25,-6.71,-0.06,-43.84,31.84,21.40,4
-0.99,-0.04,-0.00,38.70,-5.68,-3.23,-43.43,30.80,23.47,4
-1.04,-0.03,-0.04,20.20,-6.59,-6.41,-43.33,29.00,23.73,4
-0.99,-0.01,-0.03,16.42,0.00,-9.22,-43.05,28.36,24.38,4
-0.97,0.01,-0.02,27.95,-9.64,-15.99,-42.86,26.57,25.01,4
-0.97,0.03,-0.05,26.73,-0.24,0.49,-43.40,24.13,25.74,4
-0.98,0.02,-0.01,18.49,0.73,4.21,-43.36,23.40,25.49,4
-0.98,0.01,-0.04,21.42,5.62,-1.53,-43.48,23.17,26.27,4
-0.96,0.01,-0.05,26.18,6.41,3.17,-43.55,21.69,26.10,4
-1.00,0.01,-0.01,24.54,9.40,18.07,-43.90,20.57,24.27,4
-1.00,-0.01,0.02,24.66,15.08,-1.40,-44.60,20.72,23.72,4
-1.02,-0.01,0.06,28.20,4.46,9.40,-44.57,20.50,22.40,4
-1.01,-0.04,0.06,35.83,-12.94,9.77,-44.14,19.95,22.55,4
-0.97,-0.05,-0.02,16.17,-25.39,-8.85,-43.55,19.18,23.67,4
-0.99,-0.05,-0.05,-3.48,-14.22,-10.56,-42.65,17.99,24.48,4
-0.95,-0.02,-0.05,-14.10,0.24,-2.32,-42.35,18.44,25.24,4
-0.85,0.01,-0.16,5.19,5.55,5.43,-42.11,18.85,25.89,4
-0.98,-0.00,-0.05,30.88,-7.87,-17.09,-41.91,17.09,24.67,4
-1.01,0.03,-0.05,13.61,5.74,-13.12,-42.10,13.98,25.44,4
-1.00,0.04,-0.03,-4.64,0.67,-0.37,-42.05,13.55,25.09,4
-0.98,0.06,-0.04,-26.98,5.07,-3.72,-42.69,13.82,23.66,4
-0.94,0.07,-0.06,-23.25,-6.10,-6.84,-42.92,14.71,24.37,4
-0.96,0.09,-0.06,14.95,-12.39,-4.39,-41.85,14.58,26.11,4
-0.98,0.09,-0.10,17.33,-12.70,-7.39,-42.19,14.15,27.71,4
-1.02,0.08,-0.09,-2.99,0.73,-0.06,-40.49,13.34,26.55,4
-0.93,0.08,-0.06,6.16,-5.31,-5.74,-40.38,13.35,27.06,4
-0.98,0.06,-0.09,3.60,-2.50,5.00,-40.43,13.76,28.87,4
-1.00,0.07,-0.14,0.61,-1.59,18.19,-40.55,14.36,26.95,4
-0.96,0.05,-0.08,5.49,-5.43,23.50,-40.50,14.14,27.04,4
-0.99,0.04,-0.10,0.06,-5.86,-5.49,-40.72,14.59,27.78,4
-1.01,0.06,-0.10,-23.56,-8.91,-20.26,-39.81,14.03,29.03,4
-0.97,0.08,-0.14,-50.48,-11.41,-24.96,-39.44,14.40,29.47,4
-0.96,0.12,-0.19,-54.26,-2.99,-13.37,-38.60,14.82,31.02,4
-0.96,0.15,-0.20,-31.13,1.34,-27.71,-39.17,16.66,31.20,4
-0.94,0.15,-0.19,-28.99,7.14,-15.44,-38.81,16.52,31.34,4
-0.95,0.16,-0.19,-37.72,3.30,-1.46,-39.61,17.71,30.08,4
-0.94,0.13,-0.24,-46.02,0.55,-0.55,-39.70,18.62,30.47,4
-0.97,0.10,-0.23,-36.13,6.23,15.69,-39.97,21.58,30.46,4
-0.96,0.06,-0.22,-24.29,6.41,12.33,-40.75,24.91,29.16,4
-0.95,0.06,-0.20,-10.99,8.61,10.38,-40.66,25.98,27.75,4
-0.95,0.05,-0.17,-8.30,9.46,0.06,-40.93,26.10,28.11,4
-0.99,0.02,-0.19,-21.06,4.94,0.98,-41.30,26.72,26.99,4
-0.97,-0.01,-0.20,-33.51,3.05,14.10,-41.31,28.69,27.10,4
-1.00,0.01,-0.13,-36.13,-6.84,10.99,-40.58,30.88,25.43,4
-0.95,-0.00,-0.14,-14.16,0.31,0.61,-40.58,32.40,25.68,4
-0.99,-0.05,-0.17,-5.68,3.11,1.83,-40.58,32.01,26.27,4
-0.99,-0.00,-0.15,4.82,4.52,-1.53,-41.05,33.11,26.82,4
-0.95,-0.01,-0.13,-11.35,-3.78,-3.91,-40.77,32.87,25.62,4
-0.96,-0.01,-0.14,-17.64,-4.94,-2.62,-40.98,33.50,26.23,4
-0.96,-0.03,-0.16,-8.85,-5.00,-3.23,-41.56,33.51,25.82,4
-1.01,-0.02,-0.19,-20.57,0.55,1.10,-40.71,34.14,24.58,4
-0.99,-0.03,-0.15,-14.95,3.60,-6.41,-41.22,34.56,25.35,4
-0.94,-0.02,-0.15,-2.56,0.31,-1.28,-41.87,34.72,24.87,4
-0.97,-0.01,-0.15,-1.46,1.34,0.37,-40.98,34.11,23.77,4
-0.99,-0.01,-0.11,-7.14,0.49,-2.81,-41.64,34.35,25.24,4
-0.97,-0.02,-0.17,-23.56,3.23,-1.59,-42.08,34.38,22.79,4
-1.01,0.01,-0.13,-8.24,-7.87,3.23,-41.49,34.59,23.43,4
-0.98,-0.00,-0.16,-10.07,-3.48,0.55,-41.65,35.71,23.11,4
-0.99,-0.02,-0.17,-26.25,-1.16,-4.88,-41.56,36.10,24.00,4
-0.96,-0.04,-0.16,-26.79,1.53,-6.77,-41.60,36.98,22.45,4
-0.97,-0.03,-0.15,-41.38,7.32,2.08,-41.86,37.54,21.24,4
-0.97,-0.06,-0.13,-23.74,1.59,5.00,-41.64,38.71,20.17,4
-0.97,-0.04,-0.13,4.15,6.71,8.36,-41.61,39.50,20.07,4
-0.98,-0.06,-0.11,13.18,12.39,10.31,-41.44,39.77,18.21,4
-0.97,-0.07,-0.09,9.28,5.68,3.72,-41.61,39.75,18.86,4
-0.98,-0.08,-0.09,-17.27,2.75,-5.19,-41.13,39.99,18.32,4
-1.00,-0.08,-0.07,-34.18,-3.66,-22.52,-42.15,40.09,17.11,4
-1.01,-0.05,-0.06,-17.40,3.91,-13.37,-43.36,39.12,16.39,4
-0.96,-0.00,-0.08,-18.43,13.06,-7.51,-43.08,38.87,16.27,4
-0.99,-0.04,-0.03,-39.12,-3.30,-2.93,-42.92,38.94,14.00,4
-0.98,-0.00,-0.05,-9.52,12.57,9.34,-43.43,39.11,12.32,4
-1.00,-0.06,-0.02,-1.53,2.01,-2.44,-43.01,39.65,10.90,4
-1.00,-0.03,-0.03,-8.67,-2.56,-9.16,-42.80,39.21,11.79,4
-1.04,0.01,-0.01,-29.85,-1.10,-10.68,-43.09,38.28,10.88,4
-0.97,0.02,-0.02,-25.27,-5.55,1.65,-44.04,38.81,9.92,4
-0.98,-0.09,-0.07,-59.27,-4.46,32.96,-43.46,40.14,8.68,4
-1.04,-0.08,-0.02,-44.07,5.98,9.58,-41.89,42.59,7.02,4
-0.98,-0.09,-0.01,5.86,5.68,12.76,-41.86,43.77,5.13,4
-0.97,-0.09,-0.01,28.87,5.80,-2.14,-41.41,43.74,6.10,4
-0.97,-0.11,-0.01,84.11,0.85,14.53,-41.15,43.16,8.00,4
-0.99,-0.11,-0.05,66.71,5.80,-8.91,-41.55,43.23,11.36,4
-0.97,-0.09,-0.03,24.35,3.85,-18.07,-41.53,42.72,12.84,4
-0.99,-0.05,-0.06,20.94,2.08,-7.08,-42.35,41.14,12.02,4
-0.99,-0.03,-0.03,23.56,4.76,-13.73,-42.10,40.30,12.60,4
-0.98,-0.01,-0.02,20.51,-1.04,-11.60,-43.65,38.56,13.62,4
-0.98,-0.05,-0.04,27.65,-11.72,8.30,-43.10,38.79,15.81,4
-0.94,-0.06,-0.05,30.40,-10.13,11.05,-42.71,38.37,16.96,4
-1.00,-0.09,-0.10,40.83,-11.84,7.81,-42.10,39.00,19.15,4
-0.97,-0.06,-0.09,42.42,1.22,2.87,-41.27,37.73,22.02,4
-0.99,-0.08,-0.09,29.30,-0.73,4.52,-41.72,36.96,24.05,4
-0.98,-0.06,-0.11,16.85,7.32,10.25,-40.86,36.58,22.14,4
-0.99,-0.09,-0.14,32.65,0.79,-1.34,-40.87,36.11,22.92,4
-0.99,-0.08,-0.09,27.53,1.40,2.08,-41.67,35.21,23.88,4
-0.99,-0.07,-0.10,22.03,1.16,1.16,-41.30,34.50,24.33,4
-0.98,-0.08,-0.09,1.34,1.10,-4.27,-40.63,34.08,25.46,4
-0.98,-0.08,-0.10,-1.40,4.88,0.37,-41.25,34.34,24.88,4
-1.00,-0.05,-0.08,-21.00,1.83,-10.07,-41.56,33.84,25.43,4
-0.97,-0.05,-0.08,-43.46,-0.73,-23.19,-42.26,33.94,21.95,4
-0.97,-0.03,-0.09,-4.58,-0.37,0.67,-42.22,34.28,21.61,4
-0.98,-0.02,-0.09,18.62,-1.34,-5.98,-42.24,33.97,23.29,4
-0.97,-0.02,-0.10,9.77,-2.69,1.59,-42.20,33.36,22.92,4
-0.98,-0.04,-0.09,14.83,2.14,0.12,-41.88,32.17,24.19,4
-0.96,-0.02,-0.08,20.08,-13.79,4.94,-42.20,32.96,22.19,4
-0.99,-0.03,-0.08,22.09,-2.14,4.94,-41.74,32.48,23.66,4
-1.01,-0.03,-0.10,1.28,-6.41,-1.40,-41.81,32.15,23.97,4
-0.97,-0.03,-0.11,-3.36,-1.22,-2.44,-41.92,32.09,25.65,4
-0.92,-0.01,-0.12,8.97,-2.87,10.25,-41.43,31.69,24.65,4
-0.97,-0.06,-0.14,7.20,-18.43,24.54,-41.02,32.50,26.99,4
-0.99,-0.09,-0.18,3.36,-9.58,10.93,-39.43,32.92,28.99,4
-0.97,-0.09,-0.19,8.30,-7.14,3.78,-38.72,34.22,29.05,4
-0.97,-0.10,-0.19,23.62,3.66,0.00,-38.78,33.11,28.65,4
-0.96,-0.10,-0.19,26.98,10.44,-8.24,-39.21,32.42,29.60,4
-0.98,-0.06,-0.17,22.95,14.10,-0.98,-39.64,30.53,28.93,4
-0.98,-0.07,-0.14,7.63,10.74,-3.97,-39.93,29.97,28.09,4
-0.98,-0.06,-0.13,-6.59,3.78,0.92,-40.28,29.36,27.92,4
-0.94,-0.05,-0.13,21.85,11.96,11.66,-40.97,29.20,27.12,4
-1.02,-0.08,-0.12,42.97,15.50,6.90,-41.04,28.59,26.75,4
-1.00,-0.06,-0.11,33.39,4.39,1.34,-41.72,27.33,27.21,4
-1.01,-0.08,-0.11,49.26,-3.54,-8.79,-41.80,25.45,27.53,4
-0.96,-0.06,-0.11,39.18,-3.48,-8.85,-42.03,23.35,28.47,4
-0.97,-0.03,-0.11,42.85,0.12,2.38,-41.43,20.91,29.19,4
-0.98,-0.04,-0.10,23.25,-1.77,5.86,-41.17,20.09,28.82,4
-0.96,-0.06,-0.12,9.83,-0.43,-1.10,-40.54,19.29,28.32,4
-0.98,-0.04,-0.14,20.08,1.89,2.20,-40.65,18.82,27.61,4
-0.99,-0.04,-0.11,20.63,2.87,2.01,-40.67,18.32,28.10,4
-1.03,-0.03,-0.10,13.24,2.62,-5.86,-40.69,17.71,29.87,4
-0.97,-0.02,-0.11,8.00,1.28,0.79,-40.99,16.44,28.78,4
-0.98,-0.03,-0.08,16.42,7.20,1.59,-41.25,16.55,27.37,4
-0.99,-0.01,-0.09,18.86,0.24,0.43,-40.72,16.13,26.86,4
-0.98,-0.00,-0.08,35.89,-3.66,0.85,-40.98,15.21,27.50,4
-1.01,-0.05,-0.12,24.96,0.37,1.22,-40.75,13.79,27.97,4
-0.98,-0.05,-0.09,8.48,4.03,-0.49,-40.91,13.13,27.49,4
-0.98,-0.01,-0.10,1.04,0.85,0.37,-41.35,13.23,25.94,4
-0.98,-0.02,-0.09,1.28,-0.37,2.26,-41.24,13.50,26.22,4
-0.96,-0.04,-0.08,12.88,1.22,1.53,-41.28,13.62,26.15,4
-0.99,-0.02,-0.11,20.51,-5.43,-3.97,-41.44,13.06,25.35,4
-1.00,0.01,-0.12,15.99,-9.64,4.64,-41.48,11.34,25.37,4
-0.98,-0.04,-0.11,17.94,-3.97,3.54,-41.27,10.51,26.07,4
-1.00,-0.01,-0.13,27.71,-2.01,-11.72,-40.59,9.22,25.96,4
-1.00,0.04,-0.13,21.97,0.00,-7.32,-40.67,8.74,26.95,4
-0.96,0.04,-0.11,18.31,1.89,2.01,-39.72,6.74,24.60,4
-0.98,0.01,-0.11,17.09,-1.83,-1.59,-39.66,5.99,24.67,4
-0.99,0.01,-0.11,15.20,-3.42,0.43,-39.83,4.72,23.27,4
-0.98,0.03,-0.10,0.67,0.12,0.00,-40.10,5.80,22.80,4
-0.97,0.03,-0.11,0.43,2.69,-1.22,-40.14,4.44,24.35,4
-0.97,-0.00,-0.10,-19.78,-0.37,0.55,-39.87,5.07,23.44,4
-0.96,0.01,-0.12,-45.35,-4.64,-2.01,-40.10,5.83,24.65,4
-1.00,0.02,-0.15,-43.46,-1.04,-1.71,-39.98,7.19,26.05,4
-0.98,0.01,-0.11,-21.85,-3.78,-10.25,-39.53,8.51,26.14,4
-0.99,0.02,-0.13,-20.45,1.34,-13.06,-39.70,8.76,27.00,4
-0.96,0.04,-0.12,-40.10,9.34,5.86,-40.42,9.86,26.17,4
-0.99,-0.01,-0.11,-70.50,4.09,20.20,-41.13,12.15,27.58,4
-0.97,-0.04,-0.11,-45.53,-2.56,7.45,-41.28,15.70,26.73,4
-0.99,-0.05,-0.09,-36.25,-7.20,9.16,-41.35,19.15,26.81,4
-0.98,-0.07,-0.12,-14.95,-7.57,3.11,-41.28,20.74,28.22,4
-0.97,-0.10,-0.09,-23.32,-6.04,-16.30,-41.06,21.11,28.67,4
-0.99,-0.03,-0.11,-26.00,5.49,-19.65,-40.21,20.86,28.77,4
-0.98,0.01,-0.12,-31.98,-9.95,-13.12,-40.47,20.68,28.85,4
-0.99,0.02,-0.13,-31.92,-12.57,-7.08,-40.12,21.77,29.38,4
-0.94,0.01,-0.11,-48.89,-1.46,-11.11,-40.12,22.66,30.68,4
-0.96,-0.02,-0.17,-62.32,-6.35,4.46,-40.61,23.97,29.31,4
-0.95,-0.02,-0.16,-47.36,-14.28,-8.30,-40.30,27.34,29.28,4
-0.95,-0.03,-0.19,-23.07,-14.34,-10.56,-39.83,28.99,29.16,4
-0.99,-0.04,-0.26,3.17,-7.39,-11.66,-39.83,28.65,29.31,4
-0.93,-0.03,-0.22,-20.94,-7.57,6.47,-39.21,28.19,29.06,4
-0.94,-0.03,-0.21,-23.93,-4.82,0.73,-38.95,29.25,29.92,4
-0.93,-0.01,-0.23,-9.58,-5.07,-10.50,-38.46,29.69,30.70,4
-0.97,0.03,-0.24,-33.33,1.46,-26.61,-38.55,29.30,29.42,4
-0.95,0.02,-0.22,-49.19,10.68,-21.18,-39.50,28.77,28.33,4
-0.97,0.04,-0.24,-62.87,14.16,0.18,-39.95,30.55,27.22,4
-0.93,0.02,-0.17,-29.79,5.43,0.12,-40.41,32.69,25.49,4
-0.95,-0.02,-0.20,-4.39,-8.00,13.79,-40.27,34.41,25.02,4
-0.98,-0.00,-0.17,-46.33,10.74,-0.55,-39.58,34.59,23.58,4
-0.98,-0.04,-0.14,-46.51,10.31,-2.08,-40.55,37.07,21.44,4
-0.99,-0.07,-0.12,-15.87,4.76,3.23,-40.77,38.20,20.29,4
-0.94,-0.04,-0.13,-1.65,-1.34,4.03,-40.88,39.32,20.29,4
-1.01,-0.07,-0.16,-21.42,-2.50,4.39,-41.05,39.32,20.56,4
-0.96,-0.07,-0.14,-45.10,6.84,-2.32,-40.12,39.70,19.20,4
-0.96,-0.09,-0.11,-59.81,9.77,-0.18,-40.39,40.86,16.20,4
-1.00,-0.09,-0.10,-45.78,7.69,2.50,-41.70,41.76,12.41,4
-0.98,-0.09,-0.06,-40.53,3.85,-0.43,-41.72,42.03,11.29,4
-0.97,-0.07,-0.07,-24.72,-0.31,0.55,-41.60,42.71,9.78,4
-0.98,-0.11,-0.05,-27.59,0.98,-3.30,-42.22,42.72,7.21,4
-0.99,-0.09,-0.01,-51.45,-5.43,2.56,-41.80,43.33,6.87,4
-0.97,-0.11,-0.07,-21.79,-8.48,6.53,-41.20,44.23,6.73,4
-0.95,-0.07,-0.03,-13.92,1.40,0.31,-41.53,44.29,6.21,4
-0.96,-0.09,-0.06,2.81,-6.59,-4.03,-41.43,44.56,5.30,4
-1.00,-0.12,-0.10,-9.16,-14.04,-5.68,-42.46,44.52,7.18,4
-0.99,-0.11,-0.09,-10.86,-12.45,-16.30,-42.93,43.30,7.07,4
-1.00,-0.07,-0.10,-28.99,6.41,-15.63,-43.73,42.49,5.73,4
-1.01,-0.07,-0.09,-50.05,16.24,0.79,-43.98,41.38,4.48,4
-1.02,-0.05,-0.05,-54.20,11.41,1.53,-43.23,41.22,1.06,4
-0.99,-0.04,-0.03,-44.43,25.45,-0.85,-43.08,41.32,-3.03,4
-0.98,-0.09,0.03,-30.27,39.73,40.04,-42.55,41.31,-6.05,4
-0.91,-0.07,0.09,-29.24,1.04,-7.32,-40.60,42.29,-6.92,4
-0.94,-0.08,0.09,-18.49,-21.24,-16.54,-41.59,40.43,-9.24,4
-1.00,-0.06,0.04,-13.00,-6.35,-11.78,-42.18,39.33,-7.87,4
-0.96,-0.02,0.04,-18.86,-11.84,0.67,-42.50,38.76,-8.79,4
-0.98,-0.06,0.02,-21.06,3.23,5.74,-42.57,38.13,-7.06,4
-0.98,-0.07,0.01,-10.38,0.18,0.06,-42.65,38.23,-8.53,4
-1.00,-0.02,0.03,-5.00,8.54,-16.78,-42.53,37.06,-9.45,4
-1.00,-0.04,0.04,-4.64,2.62,-4.70,-42.43,37.06,-9.48,4
-0.99,-0.01,0.03,-10.13,-0.37,-2.62,-42.32,36.29,-10.22,4
-0.98,-0.05,0.06,-10.25,5.31,17.46,-42.05,36.43,-12.13,4
-0.99,-0.06,0.05,-11.17,16.60,50.54,-40.87,38.46,-12.05,4
-0.94,-0.17,0.11,-5.25,13.37,27.77,-38.82,40.26,-13.59,4
-0.95,-0.20,0.13,-14.53,-0.79,19.29,-37.30,41.48,-14.01,4
-0.95,-0.22,0.11,-7.08,-6.41,-0.92,-36.40,42.02,-15.45,4
-0.95,-0.21,0.11,-1.71,-2.32,-5.00,-36.65,41.92,-14.87,4
-0.96,-0.21,0.11,1.77,-3.72,-3.72,-37.44,42.02,-14.01,4
-0.95,-0.19,0.08,5.62,-8.06,-7.75,-37.50,41.22,-14.36,4
-0.94,-0.16,0.07,12.02,0.06,-5.74,-38.77,40.89,-13.42,4
-0.96,-0.17,0.07,26.86,7.45,6.59,-38.00,41.94,-12.51,4
-0.96,-0.26,0.07,51.45,-12.88,10.38,-37.99,43.93,-9.23,4
-0.96,-0.21,-0.01,29.36,-10.56,2.44,-38.46,45.45,-8.84,4
-0.97,-0.23,-0.02,-0.55,2.08,-19.96,-39.10,45.74,-6.71,4
-0.98,-0.09,0.01,-49.68,9.64,-21.00,-39.39,42.49,-8.19,4
-0.98,-0.14,0.04,-43.15,10.68,7.26,-40.20,40.52,-11.98,4
-0.96,-0.12,0.05,-73.06,28.93,47.00,-38.95,40.55,-13.05,4
-0.90,-0.25,0.21,-39.92,19.29,20.69,-36.23,39.89,-17.03,4
-0.82,-0.25,0.29,-34.73,-6.41,-3.66,-35.77,38.67,-19.07,4
-0.90,-0.18,0.20,-50.96,-17.88,11.41,-36.39,36.27,-20.62,4
-0.99,-0.13,0.10,-38.76,-12.39,13.79,-36.91,35.40,-20.20,4
-0.97,-0.18,0.15,-29.05,1.71,7.51,-36.76,34.55,-21.51,4
-0.92,-0.20,0.22,-31.43,9.70,10.19,-36.47,33.52,-22.49,4
-0.92,-0.26,0.25,-28.02,-4.33,0.18,-35.17,33.11,-23.78,4
-0.96,-0.19,0.22,-34.24,2.50,0.73,-35.42,31.26,-25.29,4
-0.92,-0.21,0.26,-31.07,2.69,2.50,-34.95,29.61,-24.16,4
-0.91,-0.21,0.29,-22.77,2.01,-2.08,-34.61,28.50,-26.99,4
-0.95,-0.19,0.24,-26.37,-5.19,-4.64,-35.50,26.60,-24.66,4
-0.95,-0.18,0.27,-20.39,-5.43,-3.60,-35.05,24.48,-25.61,4
-0.90,-0.18,0.27,-13.43,-7.75,-1.40,-35.40,23.54,-26.61,4
-0.94,-0.12,0.20,-9.46,-2.20,7.69,-35.56,23.52,-25.06,4
-1.02,-0.20,0.20,-6.84,-15.26,-3.30,-35.21,22.57,-25.45,4
-0.90,-0.10,0.21,-33.02,0.55,-1.40,-36.04,21.29,-24.62,4
-0.92,-0.16,0.25,-18.68,-15.14,3.30,-36.15,20.35,-24.32,4
-0.99,-0.13,0.20,-0.98,2.75,14.89,-36.71,19.85,-24.23,4
-0.96,-0.14,0.21,-9.46,2.56,0.37,-36.17,19.42,-25.27,4
-0.94,-0.14,0.22,-8.73,-30.52,-12.15,-37.59,18.40,-24.10,4
-1.00,-0.11,0.16,3.66,-20.51,-15.26,-38.79,18.14,-21.96,4
-0.96,-0.06,0.13,0.00,31.37,6.65,-38.71,18.07,-21.52,4
-0.98,-0.18,0.19,-11.96,4.64,7.20,-38.77,18.29,-22.12,4
-0.98,-0.13,0.20,18.19,11.72,17.33,-37.71,19.19,-23.34,4
-0.98,-0.07,0.17,32.78,-29.30,3.42,-37.39,20.12,-24.07,4
-0.92,-0.10,0.04,-46.02,4.46,3.91,-38.51,20.80,-22.39,4
-0.93,-0.18,0.23,-31.25,-9.77,-12.33,-39.14,17.77,-22.67,4
-0.95,-0.19,0.04,0.37,-0.85,1.77,-38.29,17.26,-22.30,4
-1.01,-0.11,0.22,-22.09,-0.67,-11.96,-38.94,16.99,-19.36,4
-1.01,-0.04,0.30,-15.32,-9.52,-17.94,-39.94,15.05,-22.13,4
-0.93,-0.15,0.07,-21.67,-12.15,-13.37,-40.71,14.33,-20.20,4
-1.09,0.33,0.33,38.33,-34.79,-25.94,-41.31,12.94,-18.20,4
-1.01,-0.02,0.14,30.94,-19.84,-19.47,-41.71,15.58,-18.37,4
-0.98,-0.01,0.17,58.41,3.48,-13.67,-42.04,15.81,-17.81,4
-0.97,-0.00,0.11,83.92,-0.92,-1.28,-41.48,17.72,-17.90,4
-1.00,-0.01,0.11,34.67,23.62,11.84,-41.82,20.15,-19.12,4
-1.01,-0.01,0.12,9.03,10.86,4.33,-41.54,22.00,-19.21,4
-0.96,-0.04,0.16,23.68,5.62,2.44,-40.37,23.55,-17.86,4
-0.95,-0.08,0.18,30.15,17.64,8.30,-40.80,25.23,-19.20,4
-0.94,-0.07,0.20,16.24,11.84,5.19,-39.48,27.62,-19.41,4
-0.93,-0.05,0.24,-12.08,-0.49,0.55,-39.42,27.10,-20.74,4
-0.96,-0.08,0.17,7.39,-15.50,-12.15,-39.59,27.97,-20.85,4
-1.01,-0.09,0.17,34.12,-1.59,3.42,-40.60,27.29,-19.32,4
-0.99,-0.11,0.12,44.92,-28.63,5.25,-41.39,29.86,-17.04,4
-0.97,-0.14,0.07,39.73,-18.68,4.46,-42.48,32.43,-14.40,4
-0.93,-0.15,0.05,36.50,-2.38,21.00,-42.81,32.92,-12.67,4
-1.00,-0.18,-0.01,42.91,-7.02,-6.77,-42.10,36.58,-11.85,4
-1.04,-0.16,0.05,30.88,8.06,-8.91,-42.33,37.44,-10.47,4
-1.02,-0.16,0.11,27.10,22.83,17.58,-42.02,38.21,-10.73,4
-0.91,-0.17,0.10,44.92,8.00,1.59,-41.10,39.56,-9.72,4
-0.97,-0.18,0.03,42.72,-8.36,-17.52,-41.58,39.99,-9.22,4
-0.98,-0.14,-0.02,67.26,-8.18,-5.00,-42.10,40.31,-6.53,4
-1.03,-0.11,-0.04,37.90,-42.85,-12.39,-42.92,40.64,-2.97,4
-0.92,-0.09,-0.03,18.25,4.03,-1.16,-43.38,39.45,-0.02,4
-0.96,-0.13,-0.02,22.95,-8.30,-5.31,-43.53,40.19,-0.32,4
-0.94,-0.15,-0.02,20.08,3.85,5.25,-43.77,38.98,1.16,4
-0.95,-0.16,0.00,-2.08,9.70,-26.43,-43.51,38.84,1.38,4
-0.96,-0.11,0.02,-20.69,8.61,-19.84,-43.69,36.52,-1.20,4
-0.98,0.10,0.12,-89.90,26.86,-40.53,-43.66,36.74,-2.29,4
-1.04,0.02,0.02,-52.06,16.42,10.62,-43.75,31.65,-6.38,4
-0.91,0.05,-0.02,-25.76,2.50,6.47,-43.63,31.08,-8.52,4
-0.99,0.06,-0.00,-30.94,-11.84,13.06,-43.84,32.85,-9.56,4
-0.98,-0.04,0.02,-38.70,-7.45,-11.96,-44.02,32.20,-10.14,4
-0.97,-0.02,0.00,23.86,-38.27,42.54,-43.59,32.50,-9.58,4
-0.98,-0.08,-0.02,-38.88,3.48,-9.40,-43.64,34.03,-9.58,4
-1.00,-0.02,0.01,-35.10,2.50,6.71,-43.24,33.25,-11.00,4
-1.00,-0.08,0.01,-46.45,8.42,-18.98,-43.25,33.03,-12.21,4
-0.99,-0.02,-0.01,-26.49,10.44,2.99,-42.42,29.33,-14.11,4
-0.97,-0.02,0.00,-16.66,1.53,-31.49,-42.85,28.78,-16.59,4
-1.01,-0.06,-0.00,10.86,-11.41,27.04,-42.97,27.16,-16.21,4
-0.97,-0.04,-0.03,-0.18,-1.04,25.02,-43.37,29.63,-16.16,4
-1.00,-0.07,-0.01,-16.30,-0.85,18.92,-42.32,30.46,-15.50,4
-0.98,-0.13,-0.04,-7.32,9.03,19.35,-41.96,32.06,-14.77,4
-0.98,-0.17,0.00,-13.98,0.49,4.64,-42.04,32.81,-16.25,4
-0.96,-0.19,0.02,-8.48,9.40,-5.07,-41.26,30.99,-14.92,4
-0.99,-0.10,0.05,20.87,13.00,-10.50,-41.24,30.83,-16.06,4
-1.01,-0.01,0.11,64.03,10.86,-2.69,-40.83,31.51,-15.54,4
-0.92,-0.09,0.10,104.61,2.69,35.16,-40.70,36.27,-11.89,4
-0.93,-0.25,0.03,84.53,-5.86,8.00,-40.27,40.88,-8.41,4
-0.91,-0.32,-0.03,38.94,4.09,2.44,-39.10,41.88,-7.58,4
-0.97,-0.35,-0.04,23.38,-7.45,-18.98,-39.36,42.09,-7.26,4
-0.95,-0.23,-0.01,-10.19,14.71,-23.86,-39.71,41.35,-6.20,4
-1.01,-0.20,0.00,15.99,12.51,-0.31,-40.52,41.14,-7.74,4
-1.06,-0.12,-0.04,45.96,-20.87,-1.46,-40.10,41.74,-7.53,4
-1.00,-0.16,0.02,15.75,-0.98,-6.29,-40.56,42.41,-4.11,4
-1.00,-0.12,-0.01,14.40,18.80,-10.07,-41.42,41.78,-2.62,4
-1.09,-0.07,0.03,28.20,58.59,-14.47,-40.86,41.47,-4.61,4
-1.01,-0.10,0.12,13.98,10.19,-5.49,-40.60,41.14,-8.87,4
-0.94,-0.07,0.11,30.46,-18.19,13.31,-39.44,40.94,-9.23,4
-0.95,-0.00,-0.03,60.79,-29.11,29.36,-39.62,43.25,-3.43,4
-0.93,-0.23,0.05,54.26,28.32,29.48,-38.28,45.15,-1.59,4
-0.97,-0.33,0.05,37.48,-10.31,-0.43,-37.45,45.89,-0.74,4
-0.92,-0.35,0.04,23.68,-13.49,-1.77,-37.81,45.26,3.22,4
-0.95,-0.32,0.02,16.11,-8.85,-1.46,-37.56,45.64,4.92,4
-0.92,-0.22,-0.04,-3.17,2.99,-6.90,-38.42,45.75,4.64,4
-0.93,-0.30,-0.02,11.78,4.39,-9.03,-39.01,45.04,4.58,4
-0.95,-0.23,-0.04,14.89,-3.72,-7.20,-38.75,44.75,5.59,4
-0.94,-0.19,-0.04,60.06,7.02,24.66,-38.28,44.82,5.71,4
-0.98,-0.31,-0.10,71.66,-11.60,42.85,-35.84,46.42,11.16,4
-0.94,-0.29,-0.08,4.94,12.21,-21.79,-35.52,46.66,11.93,4
-0.95,-0.24,-0.09,-1.89,10.01,-33.08,-37.06,45.13,13.00,4
-0.92,-0.20,-0.08,34.36,3.42,-18.43,-39.09,42.59,12.15,4
-0.95,-0.20,-0.08,39.86,3.30,-0.79,-38.39,41.74,12.77,4
-0.96,-0.24,-0.07,18.31,2.01,-19.41,-38.45,42.26,14.07,4
-1.00,-0.18,-0.11,-26.86,0.67,-40.41,-39.84,40.01,14.87,4
-0.94,-0.07,-0.07,17.03,7.26,-19.71,-40.61,37.95,13.56,4
-0.97,-0.08,-0.10,58.65,6.29,11.05,-40.42,36.56,14.26,4
-0.97,-0.11,-0.05,50.54,5.19,5.86,-40.52,36.32,15.33,4
-0.96,-0.11,-0.02,55.48,10.38,-3.66,-40.23,35.19,16.04,4
-0.97,-0.08,-0.08,76.29,0.61,-11.78,-41.55,32.46,17.77,4
-1.00,-0.03,-0.10,46.26,-5.86,-8.06,-41.56,30.26,19.93,4
-1.00,-0.04,-0.10,34.00,-13.18,-15.63,-40.75,27.73,22.18,4
-1.00,-0.02,-0.11,30.70,-1.95,-5.55,-39.86,26.67,21.50,4
-0.98,0.01,-0.10,28.32,-1.71,0.00,-40.44,25.51,22.08,4
-0.98,0.01,-0.11,36.44,-5.74,2.62,-41.15,25.50,23.66,4
-0.98,-0.01,-0.10,13.79,0.67,8.06,-40.34,24.63,23.36,4
-0.96,-0.01,-0.09,11.66,1.53,6.35,-40.22,24.51,23.19,4
-0.98,-0.02,-0.08,20.45,1.77,0.12,-39.47,23.94,22.55,4
-0.99,-0.05,-0.09,4.21,1.46,10.25,-39.51,23.67,22.64,4
-1.00,-0.08,-0.10,2.26,9.16,23.93,-39.55,24.88,22.34,4
-0.94,-0.08,-0.07,-3.66,1.10,22.09,-39.75,25.71,21.40,4
-0.98,-0.06,-0.07,14.16,-4.94,-0.67,-39.78,26.25,22.95,4
-0.99,-0.06,-0.09,26.00,-14.83,-11.11,-39.76,24.58,23.03,4
-0.94,-0.02,-0.17,25.02,-1.53,-2.38,-38.95,23.21,24.94,4
-1.04,-0.00,-0.15,42.66,-7.45,2.62,-39.59,21.86,24.41,4
-0.97,-0.05,-0.17,45.72,-5.25,-15.63,-39.62,19.80,24.88,4
-0.99,-0.02,-0.19,42.91,4.64,2.26,-38.27,16.47,24.68,4
-0.99,-0.01,-0.19,39.92,-3.23,7.32,-38.53,15.09,23.43,4
-0.96,-0.01,-0.17,46.63,-6.96,14.28,-38.66,14.33,23.21,4
-0.98,0.01,-0.19,46.39,-11.84,0.49,-39.01,12.94,22.07,4
-0.99,0.00,-0.21,14.83,-20.14,-6.65,-37.73,11.46,24.56,4
-0.97,0.02,-0.24,-16.24,-8.36,3.23,-38.43,11.87,26.54,4
-0.95,0.05,-0.34,26.37,-15.56,15.26,-37.81,12.19,27.45,4
-0.96,0.01,-0.27,45.23,0.37,15.01,-38.59,12.39,28.05,4
-0.98,-0.06,-0.20,54.26,8.00,-5.19,-39.67,10.57,26.03,4
-0.98,0.05,-0.24,36.32,15.93,-11.17,-39.60,7.68,24.94,4
-0.97,0.09,-0.20,3.72,7.69,-0.61,-39.98,7.04,23.82,4
-0.96,0.06,-0.17,7.69,-1.16,-0.85,-40.80,7.29,24.66,4
-1.05,0.09,-0.21,23.68,-2.62,-5.07,-41.17,6.57,24.10,4
-1.04,-0.04,-0.19,35.58,-0.06,7.39,-40.78,3.26,24.66,4
-0.95,0.16,-0.16,25.02,2.81,-1.28,-40.66,2.94,23.51,4
-0.99,0.11,-0.19,31.56,4.21,-8.79,-40.39,0.88,24.08,4
-0.98,0.08,-0.15,25.94,0.00,-6.41,-39.90,-1.45,23.30,4
-0.95,0.15,-0.14,15.69,-2.99,9.40,-39.73,-2.14,22.79,4
-0.95,0.17,-0.14,21.12,-0.06,11.78,-39.50,-3.25,21.61,4
-0.94,0.23,-0.11,33.87,0.85,27.04,-39.49,-3.14,21.70,4
-0.97,0.17,-0.13,35.77,6.41,14.34,-40.20,-2.97,19.57,4
-0.96,0.01,-0.09,39.61,5.13,-6.77,-40.34,-3.74,17.60,4
-1.02,0.12,-0.12,13.67,-0.79,2.93,-40.88,-4.55,17.11,4
-0.96,0.12,-0.08,9.77,4.82,-3.85,-40.20,-4.66,16.30,4
-1.01,0.16,-0.09,12.08,10.62,-7.75,-40.14,-5.73,14.61,4
-1.00,0.16,-0.06,19.29,-0.98,4.94,-40.64,-5.81,13.64,4
-0.95,0.10,-0.04,21.79,4.88,-3.11,-40.21,-6.40,12.15,4
-0.99,0.12,-0.04,21.00,-1.83,4.64,-40.54,-7.09,11.35,4
-0.98,0.12,-0.03,7.39,-30.15,25.70,-40.80,-6.16,10.99,4
-0.93,0.07,-0.01,-1.04,-23.74,-2.56,-40.92,-6.23,11.33,4
-0.97,0.09,-0.06,9.46,0.79,-22.40,-39.77,-7.75,11.43,4
-0.99,0.23,-0.03,7.75,1.77,-13.00,-39.27,-8.67,10.64,4
-0.99,0.19,-0.03,8.24,12.45,53.10,-38.61,-8.59,10.03,4
-0.92,0.07,-0.00,3.72,8.06,26.18,-40.94,-6.29,7.92,4
-0.98,0.02,-0.02,-0.49,0.49,22.64,-43.13,-3.89,7.91,4
-0.97,-0.04,-0.01,1.77,13.49,17.09,-42.81,-3.08,8.34,4
-1.02,0.00,-0.02,12.27,8.18,-11.41,-42.98,-2.37,7.06,4
-1.00,0.04,0.08,11.90,20.94,-1.89,-43.20,-2.80,5.04,4
-0.98,0.05,0.06,16.05,19.04,3.30,-42.94,-2.59,3.56,4
-1.01,0.08,0.10,21.85,2.69,-16.97,-43.29,-2.28,1.22,4
-0.99,0.01,0.10,22.64,19.65,2.50,-42.50,-2.34,0.18,4
-0.92,-0.02,0.18,40.89,20.94,27.04,-42.08,-3.12,-2.59,4
-1.02,-0.12,0.14,26.49,12.33,20.08,-43.03,0.23,-4.87,4
-0.73,-0.10,0.10,51.88,26.67,30.88,-42.42,3.25,-9.18,4
-1.08,-0.27,0.33,91.43,11.29,31.25,-43.13,5.94,-11.41,4
-0.91,-0.19,0.32,44.13,16.72,-13.61,-42.97,8.94,-13.51,4
-1.03,-0.22,0.24,30.09,16.11,-40.16,-41.93,8.45,-16.05,4
-0.92,-0.09,0.32,16.54,26.31,-33.14,-39.86,5.80,-17.24,4
-0.91,-0.10,0.27,18.80,0.92,-16.91,-38.76,4.94,-19.84,4
-0.87,-0.04,0.30,32.47,-2.56,-16.54,-38.31,4.52,-20.23,4
-0.98,-0.08,0.22,12.70,-39.43,-12.33,-38.46,4.82,-18.41,4
-0.94,-0.04,0.26,-8.67,34.55,-13.00,-38.38,4.08,-18.69,4
-0.94,0.01,0.29,-7.63,6.90,-10.80,-37.41,3.44,-19.54,4
-0.93,-0.03,0.37,24.54,43.21,-13.37,-36.89,2.62,-21.09,4
-0.97,0.02,0.40,2.32,1.53,-15.50,-35.36,2.87,-22.86,4
-0.93,0.03,0.40,-5.98,28.99,-14.34,-34.63,2.21,-22.88,4
-0.90,0.09,0.34,11.84,4.15,2.93,-34.02,2.54,-22.97,4
-0.87,0.06,0.34,19.10,-41.02,17.03,-34.28,2.70,-23.78,4
-0.98,-0.04,0.29,25.63,-43.58,4.39,-37.78,5.40,-21.12,4
-1.02,-0.02,0.27,52.25,0.06,1.04,-38.73,7.35,-20.90,4
-0.95,-0.03,0.25,19.59,43.21,-7.32,-38.17,8.75,-23.01,4
-0.91,-0.01,0.28,28.99,26.61,-26.49,-35.10,9.22,-26.50,4
-0.96,-0.01,0.32,3.78,-3.17,-15.01,-34.14,9.03,-26.37,4
-0.97,0.04,0.32,15.50,2.81,-18.13,-33.69,9.16,-28.03,4
-0.90,0.03,0.31,36.56,-13.00,-32.35,-33.46,9.14,-27.53,4
-0.93,0.04,0.26,31.07,-42.72,-9.83,-34.39,9.91,-27.48,4
-0.97,0.03,0.33,8.85,-26.00,-5.68,-37.27,11.61,-24.57,4
-1.00,0.08,0.30,14.77,-3.42,-0.06,-37.23,11.77,-24.93,4
-0.93,0.07,0.23,8.73,10.25,-2.20,-36.54,11.94,-24.66,4
-0.94,0.10,0.31,10.74,-1.83,-5.13,-36.57,12.26,-25.06,4
-0.96,0.08,0.21,6.53,-0.98,-2.99,-37.13,13.99,-24.58,4
-0.94,0.02,0.18,25.21,0.49,-9.34,-36.98,13.90,-24.29,4
-0.95,0.05,0.21,16.48,-6.77,7.39,-37.81,15.72,-23.61,4
-0.98,0.12,0.22,24.72,-4.82,-7.20,-38.34,16.05,-24.46,4
-1.01,0.08,0.25,44.01,-26.73,-22.28,-39.23,17.29,-24.01,4
-1.00,0.07,0.15,8.48,-27.34,7.81,-41.82,18.29,-20.39,4
-0.94,0.06,0.11,13.18,-1.46,4.76,-41.87,19.75,-20.80,4
-1.04,0.07,0.19,-2.50,23.74,20.32,-41.47,20.41,-20.48,4
-1.03,0.07,0.16,4.21,2.38,7.45,-40.12,21.25,-21.08,4
-0.98,-0.00,0.18,19.65,-8.73,-2.62,-41.41,22.16,-22.11,4
-0.98,0.06,0.13,14.95,-7.63,-6.23,-41.85,22.61,-18.73,4
-0.95,0.04,0.09,32.17,-4.27,-6.59,-41.06,22.99,-19.21,4
-0.98,0.02,0.15,13.61,-2.99,-0.24,-42.57,24.12,-19.08,4
-1.02,0.03,0.13,0.61,-13.37,-0.98,-42.85,24.50,-18.10,4
-1.03,-0.03,0.04,6.35,-28.26,23.80,-44.01,25.17,-15.80,4
-1.01,-0.00,0.04,0.55,-11.41,-2.08,-43.66,25.73,-15.05,4
-0.97,0.01,-0.00,6.96,-8.79,-9.52,-43.98,25.42,-13.00,4
-1.00,0.02,0.03,8.48,-1.22,-15.08,-44.27,25.22,-11.78,4
-0.98,0.05,-0.00,31.86,18.01,17.15,-43.65,25.24,-12.17,4
-1.01,-0.05,-0.01,30.46,5.13,-2.75,-43.90,27.12,-13.06,4
-0.96,-0.00,0.03,36.44,-4.76,5.98,-43.35,28.75,-12.88,4
-1.01,-0.01,0.07,22.28,-0.18,13.61,-43.69,30.37,-11.90,4
-0.98,-0.07,0.06,-14.10,3.78,14.34,-42.88,32.06,-12.23,4
-0.97,-0.05,0.07,-25.33,5.74,-0.67,-42.26,31.70,-12.12,4
-1.00,-0.02,0.05,-22.52,1.59,-20.08,-42.85,30.21,-14.25,4
-0.98,-0.02,0.08,8.30,-2.93,6.77,-42.83,28.72,-15.01,4
-1.00,-0.05,0.08,23.56,-1.40,15.75,-41.94,30.41,-12.83,4
-0.97,-0.12,0.07,-0.73,6.53,23.19,-41.92,32.45,-12.89,4
-0.96,-0.05,0.07,-11.60,8.24,0.55,-42.00,32.43,-12.81,4
-0.93,-0.11,0.05,-23.44,-0.18,-16.48,-41.41,31.52,-14.53,4
-1.02,-0.01,0.06,6.47,-9.89,-2.69,-41.50,30.91,-14.04,4
-1.01,-0.05,0.07,-7.32,-5.68,-14.40,-42.21,29.61,-15.41,4
-0.96,-0.02,0.04,-13.18,-9.28,-37.11,-42.61,28.59,-13.81,4
-0.96,0.05,0.03,1.40,3.78,-4.94,-43.68,25.39,-14.56,4
-0.96,0.05,0.04,-5.43,0.24,-14.34,-43.82,25.54,-14.10,4
-0.98,0.14,0.07,-10.93,1.28,-51.09,-43.73,21.92,-14.88,4
-0.94,0.15,0.02,1.77,0.67,14.89,-44.25,20.10,-14.70,4
-0.97,0.10,0.05,3.30,0.37,36.99,-43.70,22.06,-14.50,4
-0.99,0.04,0.05,3.66,-5.62,47.73,-43.82,26.10,-14.26,4
-1.02,-0.01,0.05,-4.64,-3.72,39.00,-43.12,29.80,-14.17,4
-0.99,-0.05,0.01,-6.41,-3.05,18.74,-42.54,31.40,-14.44,4
-1.02,-0.18,0.00,32.10,-9.64,10.07,-42.46,32.24,-13.67,4
-0.93,-0.20,-0.03,59.14,-6.16,5.49,-41.49,33.95,-11.90,4
-0.99,-0.15,-0.03,29.85,-2.20,-2.50,-41.97,36.08,-9.33,4
-0.97,-0.15,-0.06,24.84,-11.54,19.71,-41.13,38.37,-7.04,4
-0.98,-0.19,-0.02,2.99,9.64,-19.29,-41.44,37.79,-8.29,4
-0.97,-0.24,0.01,-22.46,-2.81,7.75,-41.66,36.77,-7.43,4
-0.97,-0.15,0.03,-74.22,1.22,29.30,-40.72,37.68,-10.22,4
