Acc_X,Acc_Y,Acc_Z,Gyr_X,Gyr_Y,Gyr_Z,Mag_X,Mag_Y,Mag_Z,Posture
1.83,0.64,-0.82,-88.93,260.38,-87.59,41.71,26.44,-8.23,5
-1.16,-0.45,0.72,58.04,-297.42,-125.00,42.00,26.38,-2.87,5
3.93,0.64,-0.89,-57.13,283.51,-85.08,41.55,30.53,-7.06,5
-1.10,0.44,0.33,-177.31,-278.20,-383.36,36.12,37.62,-5.11,5
2.63,-0.83,-0.36,84.17,220.58,51.76,30.80,47.74,-6.18,5
-0.46,-0.58,0.49,92.71,-263.92,364.44,39.50,21.41,-9.91,5
1.16,1.60,-0.39,-18.31,295.90,269.71,40.54,18.13,-10.62,5
0.59,0.83,-0.06,78.61,-215.21,-522.58,41.67,0.57,-2.84,5
2.08,-0.71,0.59,-115.66,153.56,-328.61,30.93,44.78,-11.94,5
-0.14,-0.64,0.76,-70.37,-9.16,-140.50,13.89,56.14,-12.66,5
0.73,-0.56,0.61,26.25,104.61,260.19,27.53,50.01,-7.13,5
1.18,0.38,0.25,25.15,8.36,85.02,41.64,35.51,0.05,5
0.95,0.07,0.30,97.23,46.20,113.46,42.43,31.92,-0.39,5
0.95,0.26,0.31,233.52,-110.66,318.12,45.56,14.62,0.74,5
1.48,-0.30,1.00,-9.89,51.70,24.11,43.37,4.69,-6.15,5
0.12,0.66,1.04,-14.77,22.34,-112.00,41.60,6.95,-7.24,5
1.18,-0.45,0.58,171.08,74.58,-264.71,43.16,28.59,-1.11,5
0.86,-0.61,0.19,387.21,-87.65,78.31,43.42,26.03,14.49,5
0.60,-0.27,0.36,270.02,-152.34,-24.48,45.18,22.51,11.10,5
0.91,-0.56,0.97,-112.24,-298.58,103.64,44.02,22.61,-5.31,5
0.51,-0.92,0.06,-21.42,-62.32,18.49,37.66,16.02,-18.87,5
1.11,-0.28,0.71,329.10,8.79,83.56,35.08,24.66,-21.25,5
0.73,-1.35,0.64,143.01,12.15,151.18,33.78,34.38,-18.81,5
1.45,-0.84,-0.29,165.59,150.39,-20.08,40.75,30.64,-12.87,5
0.79,-0.70,-0.73,102.05,-126.46,-33.81,40.53,33.54,-6.10,5
-0.02,-0.91,-4.00,-7.75,366.82,-83.80,39.45,37.19,-6.07,5
0.41,-0.67,-0.21,-27.40,10.19,-12.27,34.20,38.29,-14.39,5
0.59,-1.29,0.82,308.90,-281.19,-36.07,31.57,45.87,-10.16,5
0.74,-0.64,0.31,-150.02,-78.37,77.88,23.99,41.52,-24.35,5
0.80,-0.48,-0.28,91.49,-155.58,60.91,25.93,38.07,-25.34,5
0.16,-0.63,0.68,70.31,-483.58,154.17,13.87,40.10,-30.41,5
-0.11,-0.61,1.00,34.91,-189.64,176.39,-7.47,46.61,-30.02,5
1.27,-0.09,0.86,14.71,47.67,196.59,-0.65,51.20,-26.87,5
0.49,-0.16,0.80,8.97,-72.81,106.51,7.02,50.48,-27.28,5
0.81,-0.27,1.05,-90.39,57.74,151.61,9.28,49.33,-28.74,5
0.14,-0.60,1.68,66.22,-9.09,124.02,19.96,44.26,-25.42,5
0.35,-0.30,-0.51,31.86,138.73,-96.07,25.31,31.32,-28.02,5
0.50,0.34,1.06,77.58,-98.45,227.54,29.65,29.58,-25.15,5
0.65,0.07,0.90,-49.62,-43.95,58.59,29.71,25.24,-25.68,5
0.57,1.51,0.10,-55.24,46.20,145.63,31.87,2.78,-25.74,5
0.56,0.12,0.21,261.96,124.02,-48.89,37.38,8.72,-20.68,5
0.48,0.68,1.51,370.54,73.30,-209.78,36.05,5.73,-24.46,5
0.41,-0.40,0.64,319.03,348.08,-238.10,38.43,23.54,-21.12,5
0.13,-0.66,-2.16,585.88,67.08,-70.43,29.30,36.96,28.41,5
-0.66,-0.06,0.13,167.11,-601.07,-346.50,41.71,23.65,22.22,5
-0.38,-1.45,2.31,-65.61,-283.94,-73.06,35.33,43.63,-11.10,5
-1.49,-0.05,2.05,-221.62,114.07,-532.96,32.47,45.29,-13.06,5
-0.64,-2.90,1.14,-681.64,125.79,-434.57,0.06,35.36,-37.59,5
-0.18,-0.94,-0.39,-325.93,386.96,-298.58,26.95,0.21,-30.94,5
0.47,-0.40,0.85,-84.47,185.49,-422.18,39.27,11.49,-20.68,5
0.74,0.07,-0.19,68.60,66.77,-144.35,37.55,26.57,-18.09,5
1.17,-0.87,0.51,-78.12,38.88,60.61,36.25,36.08,-12.74,5
1.02,-0.38,0.02,-317.32,232.24,-36.80,38.62,28.76,-12.37,5
1.29,-0.26,0.02,62.99,-167.24,22.40,41.64,22.74,-7.59,5
1.15,-0.61,-0.08,-366.39,342.65,44.43,41.24,9.89,-5.94,5
1.49,-0.26,0.85,20.20,-86.91,-66.47,42.43,14.22,-4.66,5
1.22,-1.08,0.46,-295.59,-382.26,-247.74,38.60,15.10,-13.90,5
0.28,-0.50,0.22,182.68,-166.14,5.43,31.96,19.65,-25.12,5
0.22,-1.16,1.87,179.14,-233.46,-137.45,7.48,40.30,-30.99,5
-0.12,-0.82,-0.07,57.37,-314.58,84.29,-0.22,44.01,-30.04,5
0.12,-0.70,0.10,-167.48,-198.97,266.60,-11.69,41.60,-28.25,5
0.17,-1.19,0.13,270.26,-238.10,224.55,-11.62,50.85,-20.04,5
-0.58,-0.91,0.78,-50.35,55.91,102.78,-5.75,56.68,-13.04,5
0.72,0.46,-0.53,2.14,10.74,400.94,4.38,57.07,-11.51,5
2.32,0.38,-0.41,-197.27,36.56,57.92,29.11,39.51,-17.96,5
-0.14,0.15,0.71,-250.92,-28.14,-479.80,28.28,39.15,-20.40,5
1.49,0.50,-0.11,383.24,42.48,215.03,28.48,44.59,-15.48,5
1.44,0.55,-0.56,76.60,-308.23,-238.40,27.33,54.21,-8.30,5
-1.19,-1.53,-0.68,143.62,-111.88,-82.03,8.17,58.92,-6.88,5
2.55,1.04,1.91,-325.26,-192.69,300.60,9.41,58.46,-5.80,5
-0.71,-0.22,0.13,221.86,-131.96,-311.77,8.15,57.39,-11.46,5
-0.47,-0.41,0.79,-200.87,-410.03,350.89,8.02,56.27,-14.75,5
0.96,1.60,1.90,42.24,-7.69,-43.09,17.13,49.27,-20.32,5
0.23,1.17,2.19,-207.82,210.39,-303.16,22.73,40.92,-25.09,5
0.21,-0.36,0.86,11.60,164.49,-359.80,13.39,45.76,-26.83,5
-1.26,-1.42,1.30,79.28,-26.37,416.02,14.40,41.19,-29.83,5
2.27,2.40,0.08,85.14,-233.15,164.12,20.10,41.25,-26.38,5
-1.34,0.31,1.07,-366.52,180.30,-544.49,22.19,34.99,-28.65,5
0.12,-0.30,0.63,-244.08,434.51,-486.08,30.31,33.41,-24.11,5
0.73,-0.82,-0.06,-158.94,208.98,-144.04,33.04,43.63,-14.22,5
0.05,-0.70,0.69,230.83,-30.88,211.06,33.36,38.72,-18.58,5
0.65,-1.33,0.96,-125.73,-22.77,-42.60,41.52,30.90,-13.29,5
0.57,-0.54,0.07,-33.75,-92.71,-16.78,40.55,26.56,-17.41,5
0.31,0.01,0.63,25.45,-19.10,-185.42,33.65,24.23,-24.96,5
-1.55,-0.74,0.62,104.80,-84.29,-654.54,29.10,36.93,-23.69,5
-0.56,-0.32,0.48,85.08,62.19,-461.85,-15.05,56.32,-12.79,5
-0.93,0.51,0.80,1.16,193.30,516.97,-28.16,43.16,-13.13,5
1.81,-0.59,1.02,-186.83,33.75,982.97,30.08,34.59,-25.20,5
-0.34,0.38,-0.17,41.20,29.30,580.38,29.47,3.16,-28.08,5
0.10,-0.01,0.89,375.24,1.95,186.95,6.19,-5.44,-31.12,5
0.96,-0.32,0.75,237.49,153.14,333.25,-0.49,26.04,-38.75,5
1.48,-0.12,-0.06,223.27,118.16,362.12,19.64,41.06,-28.93,5
0.71,0.44,-0.92,-540.22,277.22,105.77,40.08,14.26,-20.29,5
1.96,0.26,-0.45,-378.91,671.20,-739.69,49.99,4.33,-0.59,5
-1.03,-1.41,-0.78,-636.66,22.58,117.98,14.17,65.52,8.81,5
-0.86,-0.96,0.37,-304.99,185.00,-428.10,24.35,52.01,-20.15,5
1.13,0.43,0.33,-379.39,212.89,-123.11,21.68,35.36,-32.31,5
0.79,-0.02,0.97,232.18,616.58,619.87,30.49,30.79,-28.83,5
-0.50,0.54,0.66,26.86,-197.75,337.89,37.39,-10.60,-2.33,5
0.10,0.12,1.53,132.45,-118.29,-225.40,23.67,-3.67,-24.39,5
-0.20,0.19,1.46,113.95,-235.35,-338.26,20.89,9.70,-30.54,5
-1.02,0.26,0.91,118.65,-338.44,-140.38,9.90,15.64,-36.52,5
-0.79,0.35,0.81,-18.98,-5.00,-62.50,-11.72,21.31,-35.25,5
-0.40,0.05,0.98,-178.04,604.37,218.38,7.52,17.18,-36.73,5
0.67,0.17,0.83,-230.41,350.34,505.80,24.16,-15.70,-8.17,5
-1.33,0.04,0.36,362.98,-451.35,-191.47,9.94,-19.09,-11.38,5
-0.38,-0.07,1.32,219.42,-259.16,-208.19,-6.79,5.81,-33.48,5
-0.93,0.24,0.91,172.12,-140.14,-145.02,-14.72,15.53,-33.91,5
-1.34,0.16,-0.15,179.26,-146.97,-80.57,-26.68,21.74,-27.01,5
-0.14,0.79,1.29,-173.28,298.83,-422.36,-24.00,17.90,-27.77,5
-1.03,0.81,0.32,-14.28,37.78,10.44,-9.02,0.43,-30.24,5
0.04,1.12,-0.26,-107.67,178.47,-6.65,-8.48,-2.48,-30.09,5
-0.34,0.63,0.21,187.56,132.02,-174.68,8.36,2.54,-34.06,5
-0.02,1.47,0.41,-85.69,68.18,-137.63,15.10,8.11,-34.18,5
0.94,1.34,0.30,144.78,55.79,138.98,15.83,-4.68,-31.20,5
-0.87,-1.66,2.37,124.02,183.47,157.23,9.73,3.98,-37.99,5
0.54,-0.15,1.18,22.71,-113.40,-286.80,19.12,5.03,-35.42,5
1.08,0.66,0.52,-65.06,6.53,-270.14,20.91,5.15,-33.29,5
0.76,1.04,0.04,-28.20,-33.81,57.62,23.00,8.56,-34.39,5
0.21,0.61,0.48,-52.98,67.26,-73.55,25.49,7.59,-32.68,5
0.63,0.47,0.23,183.84,25.76,82.03,29.61,10.51,-29.57,5
0.52,0.17,0.76,126.40,6.65,-23.80,32.47,20.90,-28.64,5
0.36,1.01,1.10,-85.75,5.55,88.20,22.60,15.00,-34.85,5
0.48,0.72,1.53,996.89,687.38,-146.00,35.79,38.46,-19.36,5
-0.23,0.21,-1.85,317.75,202.33,-158.39,15.15,28.10,46.89,5
0.38,-1.11,-0.56,110.96,-249.94,-120.48,22.85,25.61,44.54,5
0.90,0.06,-0.46,217.22,-167.85,-264.47,40.23,13.61,37.45,5
-0.50,-0.10,2.09,-1106.57,98.88,-484.07,33.67,49.82,12.78,5
0.31,-0.59,2.15,-521.55,102.91,41.44,14.16,4.13,-34.03,5
0.41,0.23,0.22,339.78,272.58,-297.67,26.03,10.99,-31.77,5
0.61,-0.67,-0.49,-87.16,271.55,2.44,32.42,50.70,-7.30,5
0.90,-1.76,-0.62,-91.67,2.26,-345.03,23.13,59.13,-2.66,5
0.83,-0.65,0.27,-288.88,249.88,200.99,27.21,53.50,-11.21,5
0.79,-1.08,-0.81,-159.42,-32.90,-172.79,36.11,45.74,-8.51,5
1.31,-0.92,0.56,-310.55,136.78,-143.49,23.58,51.48,-15.30,5
1.03,-0.43,-0.17,-32.59,88.38,-31.01,29.99,40.84,-20.90,5
0.94,-0.36,-0.00,214.36,-142.27,139.40,30.21,45.76,-16.86,5
1.58,0.13,-0.07,236.76,-439.03,-110.05,25.37,46.22,-20.81,5
-1.31,-0.46,-0.83,-72.51,70.37,-198.85,-2.42,58.64,-15.70,5
1.14,-1.26,0.46,-131.10,393.55,128.97,-1.81,54.94,-21.50,5
0.84,-0.93,-2.39,174.07,738.95,-143.19,34.34,44.41,20.36,5
-0.20,-0.69,-0.14,-232.79,89.29,-73.30,22.56,48.74,28.42,5
-1.27,-0.07,1.21,-655.33,-1048.52,-94.67,9.58,57.97,-5.83,5
-0.47,-0.75,1.68,157.84,-117.13,-112.98,-24.04,45.09,-17.47,5
-0.87,-0.89,0.00,151.25,155.27,10.13,-26.57,45.74,-15.88,5
-0.18,0.07,0.60,-192.57,230.47,-160.22,-16.93,43.53,-24.84,5
-0.33,-1.58,0.40,295.10,43.64,46.02,-16.71,47.78,-21.51,5
-0.58,-0.97,0.27,-317.08,-85.14,73.00,-13.71,56.20,-13.64,5
-0.47,-0.75,0.12,-114.26,17.82,-165.34,-14.47,54.31,-14.56,5
-0.57,-0.26,0.73,-30.64,196.96,139.65,-12.72,45.74,-27.82,5
-0.18,-1.48,-0.16,555.91,191.77,61.95,0.55,52.95,-24.40,5
-0.25,-0.35,-1.07,-973.02,-411.80,-125.73,3.59,63.84,0.71,5
0.40,-1.27,0.15,22.40,61.89,231.02,-11.90,46.55,-25.35,5
1.83,-1.90,-0.56,-102.60,-32.96,-7.02,2.08,42.68,-32.23,5
-1.87,0.22,1.19,91.74,120.00,179.26,-10.71,37.68,-31.51,5
2.05,-2.13,0.47,48.22,-182.13,72.94,3.45,40.61,-31.47,5
-2.95,0.38,0.35,184.57,92.59,81.48,-9.66,45.85,-29.05,5
2.14,-1.31,1.83,-28.32,-463.87,349.49,-10.21,42.76,-30.35,5
-3.09,-0.43,-0.69,243.29,195.62,-189.21,-11.01,42.05,-30.14,5
1.69,0.48,2.50,-382.02,-163.64,616.82,-3.16,49.94,-25.29,5
-0.60,-0.69,0.32,106.57,-255.07,329.77,4.44,38.32,-34.94,5
2.05,0.35,0.66,150.15,193.79,25.82,12.15,38.54,-33.15,5
-0.15,-0.29,1.46,97.60,235.11,-150.39,12.12,43.99,-30.05,5
0.86,-0.06,0.57,-237.92,273.44,-203.25,21.37,42.71,-25.83,5
0.85,-0.19,0.17,-26.55,83.80,-17.64,23.16,41.22,-25.20,5
0.75,-0.42,1.00,139.65,-81.73,-115.23,23.43,39.14,-28.08,5
0.57,-0.29,0.62,-131.04,60.42,46.69,20.59,41.55,-27.10,5
1.16,0.34,-0.63,-318.60,-62.68,-35.16,28.20,25.16,-29.20,5
0.73,0.19,0.52,-385.38,8.06,-70.74,27.16,5.14,-28.10,5
1.12,-0.10,0.93,-156.25,-90.94,-114.75,32.70,-4.75,-19.78,5
0.81,0.49,0.50,-110.23,-51.39,-137.82,33.44,-5.47,-18.21,5
0.53,0.24,0.54,21.97,-260.56,-383.24,34.55,4.38,-22.45,5
0.24,-0.68,0.86,36.74,-102.11,-272.34,22.55,25.15,-32.51,5
-0.34,0.08,0.54,12.02,-311.52,-129.46,6.03,34.08,-34.24,5
-0.65,-0.74,1.12,-190.61,37.41,89.66,-9.55,31.04,-33.97,5
-0.43,-0.31,0.91,-362.67,74.58,259.16,-4.41,16.82,-36.07,5
-0.24,0.54,0.91,21.48,-62.19,85.63,-6.87,-4.90,-28.23,5
-0.66,-0.22,0.77,81.05,124.76,-27.71,-8.37,-2.21,-30.10,5
-0.20,-0.64,0.95,42.72,81.05,-30.64,-1.89,2.81,-32.47,5
0.31,-0.31,0.75,-104.43,-24.29,-15.99,5.05,3.83,-34.06,5
-0.62,-0.12,0.97,76.97,21.97,-74.77,3.00,4.09,-33.68,5
-0.06,-0.76,1.19,147.58,63.42,-38.82,9.72,10.80,-36.51,5
-1.12,-0.39,0.80,-49.68,67.44,-148.32,21.78,14.59,-32.69,5
0.93,0.87,0.72,74.89,-211.24,-289.37,19.52,26.05,-34.29,5
-1.56,-0.36,0.54,-202.51,-299.87,-139.04,-3.37,35.58,-33.96,5
-0.95,0.13,0.44,-207.52,258.42,-37.84,-12.65,18.37,-33.76,5
0.02,0.14,1.04,-40.10,272.09,139.89,13.94,2.80,-31.57,5
-1.09,-0.18,1.30,-97.90,98.51,0.31,14.54,1.76,-31.32,5
2.37,2.70,-0.52,129.94,-152.28,-120.73,22.62,-6.16,-23.65,5
-1.30,-0.24,0.93,112.37,-379.52,-64.39,5.36,6.21,-34.33,5
-0.54,0.71,0.04,-88.26,137.88,-105.77,-3.76,5.31,-32.47,5
0.24,0.29,0.85,-28.26,225.46,90.33,5.49,3.86,-33.79,5
0.56,-0.79,1.29,-226.68,38.76,-166.14,20.72,-0.65,-29.05,5
0.37,1.05,0.33,-108.89,-169.62,-236.94,21.73,-8.84,-21.48,5
0.14,0.75,0.63,-117.49,-164.31,-305.85,26.87,8.81,-29.38,5
0.46,1.10,0.55,-70.50,-10.99,65.61,26.31,8.51,-28.64,5
0.60,0.99,0.20,34.18,192.50,136.35,28.33,1.95,-23.33,5
-0.34,-0.06,-0.70,355.59,-443.54,91.55,18.66,6.40,-32.59,5
-1.68,0.66,1.25,293.27,-326.78,164.79,-27.91,29.77,-22.57,5
-0.64,0.40,0.23,-319.89,522.22,-113.71,-25.57,32.24,-24.26,5
0.29,-0.07,0.85,-94.73,317.87,78.19,6.97,15.28,-34.84,5
0.19,0.71,0.38,-253.97,396.36,57.07,31.40,-1.34,-17.36,5
0.15,0.83,-0.43,-181.52,291.26,73.24,30.26,-10.07,17.57,5
0.24,0.80,0.05,113.34,-256.77,-21.85,26.88,-10.06,20.95,5
0.70,0.72,0.65,179.26,-227.78,-112.98,31.31,-10.27,-4.17,5
-0.21,0.20,0.55,302.31,-54.20,-175.17,31.52,8.90,-25.81,5
0.62,-0.16,1.23,186.04,86.98,-34.85,29.96,37.99,-22.51,5
0.37,-0.65,1.33,68.12,74.34,-53.53,36.88,40.08,-15.67,5
0.75,0.26,0.34,80.08,-44.31,58.17,38.33,42.29,-11.90,5
0.21,0.52,-0.63,907.35,69.82,50.96,40.67,41.59,-3.89,5
0.73,-0.74,-0.63,250.73,18.80,-107.30,39.37,35.41,25.89,5
0.71,0.64,0.18,73.12,-52.86,-108.15,38.51,26.33,32.20,5
0.94,-0.48,-1.20,555.48,-100.77,0.12,41.44,26.07,26.07,5
0.92,-0.69,-0.77,-38.76,-2.08,-214.36,45.79,15.58,14.66,5
0.46,-1.14,-0.44,-80.93,124.45,-12.51,43.37,28.52,17.97,5
0.15,-1.02,-0.95,-334.84,127.87,-33.94,37.13,39.93,23.14,5
-0.71,-1.63,-0.52,-391.42,396.61,-18.25,30.83,48.62,23.00,5
1.07,1.42,0.32,489.44,-312.44,336.79,35.45,50.11,19.34,5
-0.88,-2.71,0.81,-604.86,200.50,-451.84,27.36,56.98,16.88,5
-0.53,-1.35,0.43,542.91,-73.12,657.41,34.28,51.00,15.04,5
0.12,1.30,1.60,736.45,-302.55,251.77,47.00,10.45,14.98,5
2.39,-3.34,0.54,384.52,-48.77,-212.16,36.60,16.54,-18.73,5
1.52,-0.45,-1.34,-283.45,248.35,-12.02,43.96,22.03,-4.14,5
0.34,-0.62,-0.05,-180.91,179.38,28.99,45.37,14.55,3.58,5
1.08,-0.49,-0.94,-328.25,300.72,-91.49,47.62,17.43,13.44,5
0.71,-0.53,-0.13,-391.24,163.94,-58.29,39.72,40.66,20.65,5
0.63,-1.31,0.62,-394.71,182.31,-178.10,35.68,54.77,12.22,5
0.15,-1.11,1.37,-18.62,40.22,-107.06,30.02,59.45,-2.70,5
-0.18,0.46,1.34,-8.30,101.20,182.62,30.18,54.31,-12.15,5
0.30,-0.04,0.81,-21.67,-83.13,183.04,42.74,43.15,-10.89,5
0.72,-0.11,0.80,-81.30,205.38,80.14,44.96,27.73,-10.31,5
0.67,0.43,0.45,-59.88,183.04,8.36,48.66,19.52,-0.79,5
2.76,1.41,-0.58,121.64,338.20,-129.58,44.69,22.29,25.55,5
0.49,-0.43,-0.85,767.27,276.06,-171.69,42.83,19.89,31.62,5
0.97,-0.49,-0.08,585.21,177.86,-147.71,38.37,-14.17,21.08,5
0.59,0.04,0.24,251.59,144.35,-15.32,39.12,-14.48,0.33,5
0.61,0.21,-1.17,74.04,233.22,69.03,37.51,-16.03,13.62,5
-0.48,0.60,-0.13,42.36,-165.83,176.45,33.95,-17.82,12.18,5
0.92,0.66,-0.47,-6.84,15.32,216.74,21.53,-25.93,8.15,5
-2.21,1.14,0.42,421.51,377.01,365.42,-10.56,-23.60,-3.74,5
-0.86,0.74,0.02,167.11,29.36,165.83,-18.74,0.84,-28.54,5
-2.08,0.01,0.88,-443.91,49.01,141.54,-19.85,5.05,-29.21,5
-0.59,-0.04,-0.37,-545.17,-279.79,112.61,-20.45,-18.08,-7.08,5
-0.45,-0.69,-0.63,-465.58,-183.04,116.82,-19.34,0.70,37.98,5
-0.77,-1.13,-0.28,-203.37,-13.06,-19.41,-17.08,23.50,43.18,5
-0.31,-0.88,0.32,-306.15,145.94,55.85,-17.85,36.12,38.15,5
-0.48,-0.69,0.41,-241.27,294.74,-101.14,-19.01,56.98,9.14,5
-0.51,-0.82,0.34,-90.82,479.61,-179.81,-18.71,46.78,-16.86,5
0.66,-0.20,1.06,71.96,154.17,17.15,-1.59,41.99,-30.20,5
1.16,0.34,0.70,145.87,-183.41,-66.04,0.21,45.73,-27.59,5
-0.04,-0.63,0.59,24.23,-140.38,-69.34,-12.27,52.71,-18.76,5
-0.40,-0.64,1.02,21.18,35.28,44.13,-22.05,50.34,-12.67,5
0.35,-0.50,0.66,-61.16,295.90,148.01,-6.24,55.57,-18.99,5
0.53,-0.93,0.11,-35.77,202.64,-78.55,2.39,55.55,-20.76,5
0.74,-1.30,0.35,173.28,169.92,182.92,14.14,55.19,-19.98,5
1.58,1.29,1.10,78.74,178.10,114.62,30.59,53.32,-6.95,5
0.38,-1.75,-1.66,38.76,37.84,-119.45,34.19,52.61,8.18,5
0.51,1.45,-0.07,-323.55,-106.26,330.02,33.81,52.36,-7.47,5
0.81,-1.76,-0.37,90.03,107.54,-224.30,40.44,35.91,-12.88,5
0.83,0.16,-0.32,204.77,-34.18,-61.71,38.62,46.41,-5.80,5
0.57,-1.23,-0.07,590.27,-134.64,-159.48,26.99,55.10,16.33,5
3.02,0.25,-0.16,137.02,-291.14,-268.98,27.27,47.68,29.43,5
0.98,-0.81,-0.42,-224.06,101.38,174.07,22.01,49.83,31.01,5
0.84,-0.20,0.09,-270.14,-35.34,803.65,46.29,32.71,5.35,5
0.64,1.50,0.93,255.19,270.94,-315.43,47.99,10.39,5.69,5
0.52,0.79,-0.18,-92.04,-53.28,94.67,48.08,8.89,7.76,5
1.09,0.23,0.22,169.37,165.59,-11.35,48.60,12.50,4.71,5
0.78,0.74,0.13,-16.78,-59.45,-26.06,48.19,14.75,14.71,5
1.04,0.28,0.18,20.45,26.61,-74.10,47.33,20.76,10.02,5
1.07,0.38,0.23,-39.06,-4.52,-50.23,46.14,24.98,11.69,5
0.93,-0.03,-0.01,-211.18,-121.89,-243.65,44.48,30.83,9.52,5
1.57,-0.75,-0.28,-310.79,-106.14,-174.19,33.91,44.08,-11.27,5
0.45,0.11,0.68,-178.53,-20.69,-106.32,17.81,38.68,-28.69,5
1.51,0.43,0.46,54.50,224.49,83.98,31.29,31.56,-23.86,5
0.90,-0.34,0.27,384.40,-66.47,-24.41,35.11,35.30,-19.04,5
0.46,-0.85,-0.12,122.38,-107.97,-60.79,24.04,53.92,-7.50,5
0.76,-0.05,0.34,-237.67,-23.01,115.05,25.88,50.48,-14.06,5
1.47,0.86,2.79,-384.16,286.19,-344.97,37.50,20.67,-20.43,5
0.16,-1.46,0.16,10.74,-347.96,-461.24,27.75,44.24,-20.97,5
-0.46,-0.69,1.00,116.09,-391.24,460.94,-8.11,54.65,-19.95,5
1.21,0.03,0.73,-32.71,125.49,133.30,7.69,54.59,-20.81,5
0.50,-0.53,0.76,-0.31,-159.12,123.17,14.45,50.54,-23.12,5
0.47,-0.20,1.08,-5.19,26.67,245.79,14.56,49.90,-22.63,5
1.21,-0.37,0.55,286.50,91.67,-6.96,26.66,46.84,-16.97,5
0.85,-0.22,0.70,-16.97,-171.08,132.39,32.12,47.38,-7.51,5
0.80,0.06,0.98,-19.04,105.22,124.02,34.84,38.65,-14.71,5
1.04,0.36,0.37,162.23,-20.08,137.82,40.63,32.68,-8.47,5
0.50,-0.02,-0.07,384.70,-163.45,183.41,43.13,23.14,-5.13,5
-0.16,-0.97,-1.21,749.21,-149.54,-60.49,39.88,29.69,-10.12,5
0.99,-0.62,0.09,-66.47,-319.70,-45.90,34.13,39.62,-14.83,5
-0.13,-0.99,0.49,117.80,48.03,-4.82,27.50,41.69,-20.52,5
0.09,-0.94,0.43,70.56,-28.63,29.36,28.36,46.62,-14.58,5
0.32,-0.90,0.48,-17.46,-172.49,163.45,30.74,44.15,-13.18,5
0.04,-0.53,0.69,-24.23,63.42,53.34,32.04,35.18,-21.03,5
0.64,-1.71,1.61,-81.54,119.32,85.63,36.61,32.74,-16.13,5
0.62,-0.77,0.56,40.34,-231.45,-43.33,40.49,24.55,-15.89,5
0.60,-1.41,0.47,-73.73,89.05,-118.35,30.16,30.30,-26.61,5
0.59,-0.79,0.64,13.85,-3.36,205.02,34.63,32.35,-22.20,5
0.39,-0.25,0.52,94.06,-241.88,662.60,21.64,2.14,-30.98,5
0.27,-0.19,0.81,211.30,109.80,207.09,8.14,3.44,-34.66,5
0.52,-0.72,0.60,-39.92,346.80,-94.48,24.48,15.98,-31.52,5
1.04,-0.14,0.44,-149.35,-26.92,-160.03,39.70,14.62,-17.74,5
2.38,-0.51,-0.39,-105.29,-64.58,-250.12,39.77,26.26,-15.97,5
0.14,0.10,0.42,99.30,48.28,111.27,33.59,21.35,-24.45,5
1.52,-0.79,-0.52,101.68,-193.73,439.09,35.30,15.49,-23.94,5
0.09,-1.73,1.77,158.75,-188.84,491.70,6.93,18.96,-37.55,5
0.86,0.77,1.28,-131.29,91.06,-158.69,8.72,18.62,-37.22,5
-0.50,-1.28,1.42,40.77,71.04,95.89,12.39,14.43,-37.38,5
2.58,2.54,-0.85,43.88,-80.20,-35.10,15.21,9.41,-34.01,5
-0.45,-2.78,0.95,-6.59,82.21,166.20,14.05,22.62,-36.13,5
1.16,2.61,0.68,77.94,-11.66,90.03,15.21,17.68,-35.89,5
0.25,-2.24,0.51,-68.12,81.24,75.38,17.10,23.00,-36.83,5
0.92,2.55,0.38,-103.21,1.34,34.42,20.09,16.82,-34.67,5
0.58,-0.67,1.15,-134.95,-25.51,-294.37,16.11,13.13,-36.60,5
0.73,0.44,0.06,-422.36,185.00,-610.17,24.08,5.37,-29.99,5
0.66,-0.49,0.23,-221.62,91.19,-184.02,36.39,9.95,-21.24,5
0.91,-0.67,0.08,-115.05,76.90,-193.73,42.54,20.58,-9.52,5
1.11,-0.87,-0.02,-56.64,60.24,-202.82,40.73,36.32,-4.69,5
1.08,-1.09,-0.02,285.10,-380.13,526.79,39.48,20.72,-15.59,5
0.47,-0.48,0.35,255.37,61.77,241.76,31.80,14.49,-25.95,5
0.47,-0.48,0.34,627.32,-302.00,288.94,34.30,17.21,-24.82,5
0.98,-0.43,1.43,147.46,-10.01,8.42,18.07,40.52,-28.26,5
0.68,-0.15,0.86,-11.60,-98.63,47.67,14.77,39.15,-32.17,5
0.54,0.24,0.78,-14.95,-74.40,37.78,12.82,39.50,-30.62,5
0.36,-0.32,1.22,21.00,8.30,-20.08,10.17,39.43,-32.20,5
0.18,0.06,0.74,6.96,-29.05,22.40,8.51,41.06,-32.93,5
0.84,-0.11,0.79,26.61,-28.02,-10.80,4.88,43.48,-30.71,5
0.19,-0.23,0.76,-15.14,91.67,188.90,7.06,44.95,-31.02,5
0.17,0.11,1.11,19.23,115.48,152.34,17.93,41.33,-29.64,5
0.31,0.40,0.64,36.25,46.63,99.24,27.83,35.83,-27.31,5
0.76,0.05,0.72,-100.10,-70.37,51.33,29.75,28.72,-27.37,5
0.56,0.57,0.47,247.31,83.62,52.98,29.81,23.56,-28.23,5
0.45,0.16,1.14,10.13,-101.14,88.99,33.20,30.97,-22.94,5
0.56,0.38,0.57,103.76,-13.98,44.07,32.65,30.20,-22.42,5
0.19,-0.51,0.88,-159.18,-30.64,-94.73,31.48,31.32,-23.12,5
0.35,0.48,0.28,-45.35,190.55,-146.67,32.15,28.69,-17.82,5
0.51,-0.17,0.31,-291.32,57.07,-222.60,37.51,32.10,-15.69,5
1.38,-0.16,0.07,62.99,132.08,-14.16,36.07,34.59,-18.46,5
1.02,0.21,0.19,36.38,-98.88,15.14,37.61,36.22,-15.00,5
0.84,0.01,0.02,702.09,53.47,173.16,42.41,35.23,-1.34,5
1.60,-1.38,0.34,146.79,332.09,-160.46,39.03,38.26,18.31,5
0.81,-0.14,-1.05,212.34,-260.99,45.35,24.55,32.84,38.49,5
1.10,-1.04,-0.21,280.40,-7.51,-159.12,32.10,33.41,31.16,5
0.49,-0.21,0.01,-83.07,108.58,-235.29,24.72,30.68,39.50,5
0.38,-2.32,0.03,-742.68,116.58,-98.39,17.44,52.75,25.45,5
0.18,-0.69,0.91,368.71,-111.76,27.77,7.50,62.45,1.89,5
0.62,-0.75,0.02,-166.75,102.48,343.75,19.45,58.18,9.35,5
0.81,-0.89,0.59,56.27,127.20,130.07,32.96,48.89,10.96,5
1.00,-0.01,0.24,-142.94,-44.98,239.99,38.12,41.69,13.85,5
0.60,0.51,0.75,35.46,-94.24,-60.00,45.84,26.14,2.83,5
1.12,-0.10,0.30,-60.42,-48.58,-174.01,37.93,40.54,2.15,5
1.17,-0.20,0.21,34.00,-50.23,20.45,29.05,49.26,-5.63,5
-0.13,-0.84,0.75,181.70,-53.77,262.63,34.70,43.51,-3.59,5
1.32,1.00,-0.08,92.41,108.09,83.62,43.32,24.93,9.23,5
0.78,-0.20,0.55,-18.25,13.49,-77.21,42.85,22.69,13.84,5
1.29,0.44,0.05,-106.57,-18.31,29.42,43.79,21.61,14.98,5
-0.43,-1.14,0.82,-150.33,-180.91,-245.67,41.92,31.18,11.99,5
1.35,1.14,-0.43,27.71,274.05,276.98,39.59,37.37,0.15,5
-0.17,-0.07,0.70,-192.32,-108.95,-365.91,39.87,35.12,5.83,5
2.77,0.68,-0.52,129.15,33.87,233.22,40.45,34.18,7.13,5
-1.23,-0.48,1.13,-90.94,-104.55,-199.58,41.08,32.85,1.82,5
1.74,0.73,-0.04,33.33,117.00,180.66,42.50,30.69,2.17,5
1.14,0.05,-0.04,24.78,-11.60,-73.49,42.80,30.99,10.50,5
1.36,0.41,0.11,47.85,-18.55,46.51,43.07,28.53,9.46,5
0.01,-0.16,0.50,-43.15,-225.59,-112.73,39.67,33.90,-2.44,5
0.63,0.88,0.26,17.46,260.56,276.25,41.33,27.48,-6.01,5
0.98,0.25,0.52,13.73,39.79,-225.40,45.20,20.24,8.63,5
1.67,0.80,0.00,50.42,-68.60,103.39,43.54,26.35,9.96,5
-0.73,-1.69,0.57,-52.25,-118.41,-276.25,41.00,32.52,1.76,5
1.02,1.51,-0.02,-7.32,164.98,241.03,40.72,31.46,-1.67,5
0.12,-0.40,0.70,-41.87,13.31,-301.70,42.99,26.78,5.52,5
2.05,1.02,-0.04,10.25,5.68,216.06,44.07,26.03,7.84,5
1.08,-0.24,0.16,55.79,-110.78,-369.38,38.35,38.57,3.75,5
-0.70,-0.76,2.25,110.72,25.21,295.29,28.85,47.17,-6.34,5
1.08,-0.52,1.15,-47.73,-22.71,-90.70,41.85,27.92,-3.30,5
0.57,0.57,0.30,59.57,238.83,156.62,38.17,39.37,-0.22,5
0.81,0.40,-0.13,-80.93,-77.33,-445.31,30.30,47.92,2.91,5
-0.98,1.04,0.73,-104.31,60.00,-444.09,7.79,60.14,-6.02,5
-0.46,-1.27,0.18,135.93,41.81,-151.18,-17.05,57.76,-5.87,5
0.73,-1.50,0.50,88.81,74.34,855.16,-4.11,64.14,-3.89,5
1.05,-0.49,0.44,67.87,-44.19,294.98,40.52,37.73,-0.84,5
0.59,0.59,0.75,-38.15,81.85,345.34,44.10,25.66,-1.98,5
0.86,0.06,0.19,-331.05,-303.47,-738.46,43.95,24.66,-1.55,5
1.50,-0.42,0.30,109.44,206.48,325.20,17.10,50.26,-21.04,5
-0.19,0.18,0.68,-105.65,-163.21,-158.20,31.80,40.92,-16.98,5
1.89,1.20,-1.23,66.77,359.07,181.52,32.78,36.91,-17.33,5
-0.14,0.37,0.39,-71.72,-202.09,-45.17,43.13,28.72,-7.32,5
1.73,0.75,0.20,11.84,-25.45,47.85,43.74,20.19,-10.30,5
-0.72,0.28,0.12,29.54,-362.37,-186.52,25.17,34.01,-26.84,5
3.13,0.69,0.20,19.47,130.74,-36.25,24.67,34.96,-27.84,5
-2.59,-0.15,0.36,-104.92,-349.37,77.82,20.62,36.28,-27.87,5
3.11,1.01,0.77,15.99,148.68,148.56,30.53,27.81,-25.27,5
-0.40,-0.34,0.85,-39.86,-211.61,88.75,20.70,24.44,-32.52,5
-0.56,0.62,0.85,-43.27,-222.23,-108.34,15.54,20.64,-32.78,5
2.01,1.14,1.20,28.08,168.52,-8.06,2.17,16.97,-35.47,5
-1.59,1.00,0.71,-83.92,166.38,-215.94,17.43,16.97,-33.18,5
0.77,-0.35,-0.63,6.04,366.58,-268.92,39.21,26.10,-15.05,5
0.76,0.30,0.02,-19.90,84.47,-207.64,40.32,37.57,-4.90,5
1.68,-0.86,-0.74,-205.57,101.50,-158.69,31.53,50.48,3.45,5
0.47,0.56,0.55,-51.51,-305.85,66.16,28.53,53.44,-1.84,5
0.36,-3.12,2.20,352.54,-574.04,-214.84,-3.76,59.55,-15.65,5
-0.59,-0.55,1.06,-44.37,-35.58,-171.39,-13.29,48.46,-22.22,5
0.19,-1.16,1.21,20.87,35.03,12.94,-17.99,38.84,-27.34,5
-1.91,1.11,0.49,375.67,19.90,544.31,-14.27,48.17,-22.99,5
1.60,-1.67,0.72,254.76,50.23,118.71,7.15,64.15,-0.74,5
0.40,-0.56,0.30,205.75,71.84,11.72,14.14,62.11,10.29,5
-0.04,-0.92,-0.15,-40.04,37.96,-383.18,4.82,59.63,23.57,5
-0.20,-0.81,0.22,-3.23,50.48,-391.54,-21.62,47.57,25.27,5
-1.91,-1.64,0.40,-194.95,121.77,7.45,-26.86,42.10,20.02,5
-1.44,-0.57,1.34,-199.28,69.15,171.81,-32.62,32.34,5.37,5
-0.95,-0.74,1.36,-25.82,356.38,1027.71,-11.44,49.60,-22.88,5
0.86,-0.05,0.26,178.65,339.29,213.62,29.24,40.72,-21.67,5
0.82,-0.02,0.72,49.62,63.60,-279.17,40.21,38.83,-3.86,5
0.40,-0.58,-0.41,434.08,-177.98,-385.01,29.98,53.99,-0.15,5
0.31,-0.61,-0.39,350.10,-22.09,-313.48,3.02,51.18,36.84,5
0.03,-0.51,-0.51,433.53,96.62,-270.63,1.94,19.30,49.33,5
-0.31,-0.59,-1.17,-276.67,240.78,39.61,-9.53,9.30,49.41,5
-0.58,-2.28,-0.90,-285.16,659.06,-47.06,-21.40,23.85,45.64,5
-0.49,0.74,0.89,-99.37,72.20,-69.03,-42.10,21.72,-4.61,5
-1.69,-0.63,1.13,-1.53,83.80,788.82,-40.67,23.18,-10.30,5
1.12,-0.90,0.74,159.36,16.85,329.10,10.24,51.42,8.19,5
0.41,0.65,0.62,122.44,62.44,62.56,25.85,49.15,9.83,5
0.52,-0.82,-0.35,108.52,88.93,-875.85,7.23,56.52,15.33,5
-1.37,0.59,-0.27,89.42,-81.12,-30.82,-18.12,58.12,21.75,5
-0.74,-1.71,0.16,109.31,-83.50,52.12,-36.54,14.93,40.98,5
-0.66,-1.48,-0.41,-80.32,16.54,78.98,-30.47,18.86,41.98,5
0.10,-0.73,-0.02,-18.31,33.69,-172.49,-36.88,17.07,33.89,5
-0.28,-0.91,-0.69,-203.92,-71.72,185.18,-40.45,23.83,21.45,5
-0.40,-0.78,-0.26,43.88,-326.11,-80.75,-31.15,38.38,36.83,5
-0.32,-0.58,-0.32,77.76,-31.43,79.47,-27.08,38.35,42.87,5
-1.32,-0.48,-0.81,-168.46,-210.69,-96.50,-25.66,36.65,46.11,5
-1.54,-0.73,0.22,-89.66,-377.08,70.74,-12.83,36.54,49.45,5
0.61,-1.13,0.46,-195.62,-409.55,-120.73,19.81,50.55,23.29,5
-1.69,0.20,-0.10,666.26,729.55,-141.24,13.31,52.20,22.95,5
-0.69,-0.05,-0.61,96.44,280.58,258.30,-38.94,17.53,33.80,5
0.20,-0.62,-1.11,102.72,83.74,22.58,-35.75,28.06,27.62,5
-1.28,-0.21,2.11,125.31,95.28,-15.50,-39.05,29.00,19.63,5
0.35,-0.47,-1.54,235.96,-72.14,7.02,-34.96,25.90,32.96,5
-1.15,-0.38,0.40,-244.08,209.05,17.33,-35.93,25.68,29.37,5
-0.71,-0.65,1.33,136.96,-33.69,85.08,-37.13,31.13,18.53,5
0.35,-0.97,-2.75,46.63,110.23,19.96,-31.27,32.32,29.37,5
-1.48,-0.26,0.54,-110.53,-398.32,-134.34,-31.49,33.31,29.81,5
-0.25,-1.04,-0.41,10.50,-202.88,-57.43,-24.58,26.43,39.82,5
-0.51,-0.63,-0.76,-20.14,-251.59,-152.53,-10.80,26.03,46.98,5
-0.35,-0.50,-0.98,392.03,-192.14,112.18,7.84,19.73,51.06,5
-0.40,0.47,-0.47,344.73,-179.81,34.91,18.37,-9.72,39.20,5
0.46,0.13,-1.50,-64.15,10.13,-31.56,19.93,-18.63,30.03,5
0.42,0.50,-0.87,171.94,-187.93,-180.85,25.04,-13.67,29.10,5
0.28,0.50,0.13,173.28,-85.63,-96.98,37.65,-8.11,8.33,5
1.22,0.64,-0.70,30.40,-109.31,-70.37,41.11,-4.10,3.22,5
0.04,0.83,0.19,176.15,23.32,138.18,40.64,-4.11,0.01,5
1.24,0.43,-0.65,-14.59,100.34,-366.88,40.43,-4.85,-0.90,5
1.31,0.22,0.09,-39.86,-24.60,33.63,44.10,20.12,-4.55,5
0.61,0.28,-0.82,64.94,-35.10,-104.92,43.64,21.20,-4.08,5
1.28,0.21,0.15,-78.92,48.34,-115.23,42.57,27.38,-2.10,5
0.84,0.01,-0.15,75.93,-164.98,-86.00,38.23,36.00,-6.14,5
0.94,-0.12,0.21,-157.71,-32.71,-60.97,28.98,44.90,-14.82,5
0.79,0.06,0.46,-276.18,49.68,101.93,29.61,34.52,-22.16,5
0.81,-0.04,0.09,-364.20,242.80,290.83,37.37,22.88,-18.84,5
0.70,0.78,-0.76,-211.24,-39.18,135.62,38.70,-10.85,6.16,5
0.88,1.00,-0.72,562.56,-230.53,-296.02,39.26,-10.13,2.54,5
0.76,-0.47,0.39,356.08,-92.04,-93.69,34.91,27.01,-22.66,5
0.72,-0.10,0.23,-162.96,-12.88,34.06,29.86,38.32,-20.69,5
0.64,-0.34,0.14,-806.15,379.64,203.86,39.15,15.27,-19.62,5
0.56,-0.29,-0.62,585.69,-384.34,-15.14,42.96,0.89,8.44,5
0.72,-0.29,0.47,-468.87,79.65,-44.31,37.46,18.01,-19.38,5
0.87,0.33,-0.93,768.86,-236.39,-116.58,40.34,17.49,-14.11,5
0.20,-0.93,0.56,414.00,-343.93,-16.72,26.99,38.72,-22.12,5
0.24,0.65,-0.35,-748.29,-249.51,420.90,21.31,43.02,-25.31,5
0.04,2.27,0.99,-148.93,317.99,79.53,12.35,-18.71,-22.56,5
0.74,1.74,-1.45,-22.71,-99.24,74.77,20.65,2.10,-33.40,5
0.21,1.95,1.94,-634.64,-161.62,-143.37,9.79,-10.75,-28.89,5
0.17,0.37,-0.90,150.15,59.94,-479.49,30.03,-15.82,-13.95,5
0.85,0.12,-0.19,62.44,52.12,-444.64,42.48,20.30,-10.95,5
0.62,-0.47,-0.44,-182.43,79.47,-190.98,34.36,40.39,-10.36,5
0.81,-1.00,-0.17,50.78,266.30,61.16,33.40,40.76,-13.67,5
0.23,-0.58,-1.51,51.03,221.07,45.59,40.28,35.61,3.77,5
0.47,-0.94,-0.52,34.24,-193.54,-163.45,40.15,36.73,8.30,5
0.30,-0.73,0.28,-22.77,60.49,-291.69,26.40,50.70,2.47,5
-0.84,-2.02,-0.23,-399.11,-48.34,-222.23,11.01,57.01,-7.23,5
-0.51,0.74,0.06,-9.70,-126.71,51.57,-6.34,46.72,-24.76,5
-0.26,-0.57,0.23,-14.65,61.34,19.47,-13.04,42.31,-26.73,5
-0.45,-0.87,0.72,15.08,28.81,77.39,-8.47,42.30,-29.86,5
-0.31,-0.72,0.52,-63.35,-63.84,-53.22,-8.80,36.45,-33.28,5
-0.29,-0.71,0.68,74.28,14.04,-39.55,-10.19,33.92,-32.67,5
-0.56,-1.46,0.63,86.91,-186.89,-47.73,-18.87,40.17,-27.17,5
-0.90,-0.76,0.38,-61.10,116.94,-163.76,-30.60,32.36,-23.11,5
-1.38,1.44,-0.50,-711.00,126.71,169.86,-20.34,-10.49,-17.38,5
-0.42,-0.46,0.11,303.77,206.85,309.75,-28.94,-3.02,-17.58,5
-0.98,-0.74,3.41,85.21,3.23,67.75,-16.85,32.20,-32.28,5
-0.59,-0.24,-0.23,375.12,-3.30,118.96,-13.48,46.77,-26.62,5
-0.35,-0.37,-0.79,201.90,-199.22,400.76,13.82,59.68,3.14,5
2.02,-0.97,0.72,-99.12,100.46,113.53,27.77,52.54,-2.69,5
-1.00,-0.44,-0.82,-377.08,-496.52,-428.59,26.60,52.19,-9.25,5
-0.03,-0.80,0.58,14.16,-89.66,31.80,2.87,47.51,-28.08,5
0.57,-0.57,0.66,135.19,-48.58,33.33,-11.66,49.90,-24.35,5
0.02,-0.73,0.47,-55.91,441.59,72.02,-1.51,51.21,-24.34,5
1.19,-0.32,0.57,-67.81,-298.83,145.87,9.57,47.81,-28.04,5
0.74,-0.34,0.09,18.07,-4.39,199.28,5.14,41.28,-31.46,5
0.60,-0.53,0.25,59.02,-175.42,-42.05,1.48,47.02,-30.48,5
1.45,-0.89,1.06,-167.48,35.10,67.63,-5.44,52.16,-26.29,5
1.22,-0.46,0.67,-22.40,-24.66,154.91,-2.88,51.53,-24.91,5
0.56,-0.19,0.61,-95.15,-208.25,97.35,6.77,47.74,-26.05,5
-2.00,0.22,0.92,93.32,44.31,-106.75,-7.81,40.86,-30.29,5
-0.95,-1.69,0.65,-41.81,255.31,-348.57,8.80,49.87,-23.12,5
0.23,-1.28,0.17,46.63,262.63,57.50,-0.78,54.46,-18.65,5
1.06,-0.45,0.23,-71.59,58.41,-87.89,10.36,58.29,-17.74,5
2.42,-0.71,-0.27,143.62,-103.21,-41.93,1.84,57.75,-17.92,5
1.65,-1.24,0.05,44.62,-8.85,302.67,15.01,58.51,-11.67,5
0.87,-1.05,0.53,-43.40,-114.20,217.41,27.42,50.59,-10.88,5
-0.74,0.50,0.01,-95.83,-233.70,34.91,28.69,32.43,-20.25,5
-1.16,0.47,-0.77,76.11,78.80,-150.94,16.46,39.05,-25.13,5
0.09,-1.34,-0.03,244.38,115.72,-193.48,15.01,55.88,-13.59,5
2.82,-3.16,1.25,-42.48,9.34,-199.58,12.82,65.21,-7.48,5
0.83,-2.10,1.40,-80.32,29.97,327.76,3.98,64.70,-11.91,5
-0.11,-0.27,0.57,-49.74,41.69,231.81,22.34,43.77,-22.53,5
-0.29,0.14,0.12,-34.55,75.44,84.17,32.28,32.65,-18.88,5
0.20,1.11,-0.42,99.06,-47.24,-75.93,30.87,35.05,-17.86,5
1.02,1.18,-0.25,247.92,-96.01,-348.88,23.27,47.41,-14.40,5
-0.12,-2.31,-0.30,145.32,-34.55,-283.81,-7.24,64.49,3.88,5
0.09,-2.40,0.28,64.39,10.19,15.99,-25.94,54.90,11.19,5
-0.46,-1.20,0.18,16.17,-302.00,1.65,-22.47,58.74,20.64,5
0.50,-0.42,-0.20,212.28,-100.04,64.76,-11.89,57.29,27.93,5
0.01,-1.65,-0.49,14.89,-136.78,127.32,-1.94,45.58,55.55,5
-0.78,-1.37,-0.73,-355.59,252.87,582.03,21.63,56.13,25.05,5
0.03,-0.05,-0.79,-456.36,-13.24,240.23,34.07,43.32,1.95,5
0.55,1.42,-1.12,-185.00,-224.98,-15.93,41.28,34.94,-5.69,5
0.11,-0.25,0.36,-499.63,-309.75,-219.91,22.41,37.81,-29.79,5
1.03,0.80,1.52,-88.20,20.57,14.59,15.92,6.20,-35.31,5
0.94,0.14,0.34,200.93,251.59,-375.67,30.77,17.70,-28.08,5
0.85,-0.79,0.63,382.45,496.89,-417.85,35.49,42.27,-14.29,5
1.16,-1.09,-0.90,193.42,204.90,-243.16,1.60,58.06,24.61,5
0.06,0.28,-0.27,244.02,153.63,37.60,-21.11,46.91,31.46,5
-0.35,-0.33,-0.46,639.28,2.62,255.68,-21.78,20.53,41.59,5
-0.72,0.13,-0.09,90.03,49.26,87.16,-24.52,14.53,39.53,5
-0.74,0.38,-0.01,48.71,2.01,23.13,-27.54,13.06,38.68,5
-0.78,-0.15,-0.10,-153.32,-72.27,34.18,-23.80,14.11,40.69,5
-0.85,-0.90,-0.26,-488.89,-427.86,45.96,-13.79,46.36,37.08,5
0.90,-2.37,0.17,-363.04,-930.05,-89.29,2.28,62.37,16.04,5
0.45,-0.46,-0.52,-404.42,-358.95,56.34,-15.66,56.16,-11.80,5
-0.22,-0.52,0.52,-219.36,-104.61,108.70,-25.72,46.42,-18.49,5
0.15,-0.69,0.24,-77.39,232.18,254.46,-11.34,50.79,-24.88,5
0.90,-0.79,0.59,243.53,432.43,291.93,7.31,47.06,-29.24,5
1.48,0.15,0.10,-205.26,354.43,178.16,44.56,32.23,-7.36,5
0.62,0.05,-0.23,-16.91,498.05,-83.31,38.34,22.73,31.26,5
0.05,-0.20,-0.79,-344.97,-72.81,-258.18,19.86,45.36,34.72,5
-0.20,-0.35,-1.29,-163.39,-289.92,26.73,18.58,53.83,25.83,5
0.33,-0.53,-1.20,-198.30,-491.76,30.52,22.83,56.85,0.12,5
0.52,-1.11,-0.01,43.03,-146.61,11.41,5.90,55.60,-17.13,5
0.67,-1.13,0.23,-3.48,-54.93,84.59,4.02,58.54,-15.70,5
1.35,-0.89,-0.07,3.85,210.02,183.59,10.18,56.41,-16.10,5
0.97,-0.73,-0.15,213.26,613.10,293.58,35.72,47.40,-4.03,5
0.26,0.24,-0.64,135.86,534.91,65.73,21.98,18.35,46.56,5
-0.23,-0.14,-0.86,-97.60,-251.89,-246.15,16.09,32.96,45.78,5
0.23,-0.29,-0.93,306.95,-64.51,-219.18,19.57,34.74,41.26,5
0.94,0.40,-1.05,188.54,-272.09,-90.27,23.65,27.14,41.20,5
1.19,0.15,-0.55,164.55,-94.24,-20.02,34.11,16.35,31.29,5
1.06,0.25,-0.61,87.28,-51.51,40.65,37.13,13.21,27.11,5
1.24,0.03,0.34,159.06,-267.82,0.24,42.15,13.31,18.05,5
1.42,0.11,0.26,110.78,113.04,-62.56,43.46,10.33,12.55,5
0.93,0.38,0.29,149.72,-215.58,-24.41,43.32,9.92,13.62,5
1.11,-0.11,0.27,74.77,88.32,97.17,42.97,5.90,9.57,5
1.09,0.32,0.03,382.87,59.45,-7.87,41.46,-2.12,8.96,5
0.70,-0.40,0.61,151.73,-49.50,26.79,40.81,-3.75,0.82,5
0.62,-0.25,0.47,204.47,-195.31,138.61,35.38,-6.60,-10.51,5
0.63,0.48,0.69,-204.59,-201.84,106.69,22.03,-14.16,-18.97,5
0.62,0.51,0.81,63.11,-75.32,55.79,13.73,-17.94,-18.13,5
0.36,0.11,0.88,415.95,-65.80,-15.93,10.63,-10.66,-28.17,5
0.24,-0.76,0.43,244.51,61.34,82.03,6.71,31.82,-36.25,5
0.11,-0.40,0.24,4.76,-165.22,-16.78,2.34,42.75,-31.79,5
0.06,-0.47,0.42,-52.61,-161.07,14.10,-2.61,44.45,-31.18,5
-0.01,-1.06,0.73,22.22,134.46,55.11,-9.91,43.09,-31.98,5
0.95,-0.74,0.51,81.73,140.50,170.90,7.95,42.04,-33.63,5
0.64,-0.57,0.51,-95.64,-89.23,44.68,12.13,37.22,-33.15,5
0.63,-0.46,0.31,5.49,48.77,55.79,13.65,36.76,-33.97,5
0.93,-0.23,0.58,-52.73,-9.09,-123.54,18.18,34.19,-31.93,5
0.66,-0.52,0.40,32.59,-55.79,-86.73,10.19,37.05,-35.00,5
0.79,-0.71,0.61,-85.14,69.70,-35.34,11.87,36.78,-35.57,5
0.48,-0.41,0.80,-179.99,80.81,-309.02,12.45,31.64,-37.23,5
-0.34,-1.09,2.33,-342.90,-111.45,-204.71,12.66,21.28,-38.45,5
0.67,-0.35,0.95,-59.27,137.88,-15.26,17.46,11.28,-35.53,5
0.34,-0.26,0.55,28.63,-20.81,21.61,26.21,-0.34,-28.80,5
0.56,0.08,0.65,494.45,56.15,229.13,24.57,2.61,-30.47,5
0.04,-0.72,1.32,-36.07,-143.68,170.23,19.32,25.57,-33.33,5
0.75,-0.15,0.77,100.22,-107.18,37.35,17.22,12.72,-35.64,5
0.64,-0.08,0.67,80.20,-32.59,-9.83,12.08,18.31,-37.87,5
1.22,-0.30,0.74,138.79,-80.51,237.49,11.21,20.96,-37.48,5
0.41,-0.07,1.06,-109.92,-33.26,86.98,5.74,24.82,-38.79,5
0.59,0.04,0.76,-4.46,-58.11,93.75,4.68,17.53,-39.43,5
0.29,0.05,1.04,-39.43,16.05,87.89,2.28,16.06,-39.16,5
0.84,0.41,0.46,-113.95,-17.94,-5.49,5.30,17.14,-38.05,5
0.48,-0.40,0.26,166.99,455.75,-245.06,15.88,22.27,-36.61,5
1.09,-0.45,-0.27,219.42,159.79,-193.30,28.99,45.32,-13.85,5
0.65,-0.70,-0.39,59.81,-153.81,-206.54,14.26,59.36,-5.07,5
0.70,-0.86,-0.03,146.67,-238.59,-66.53,7.31,60.82,-3.47,5
0.56,-1.06,0.29,-121.89,-510.38,-56.70,-2.61,64.06,1.83,5
0.06,-0.91,0.51,-82.52,-232.79,0.98,-8.44,63.83,-0.74,5
-0.08,-1.93,0.55,62.50,-56.03,-165.28,-15.52,62.05,-2.22,5
-0.27,-0.48,0.72,-188.17,217.71,-135.80,-16.92,61.68,-3.55,5
-0.29,-0.62,0.83,-526.61,465.58,2.99,-12.77,47.28,-27.14,5
0.80,0.38,-0.29,-186.46,394.71,-68.79,29.25,12.84,-27.20,5
0.68,0.20,-0.85,-227.05,280.64,-52.86,43.37,13.04,3.49,5
0.81,0.00,-0.59,-157.47,-22.34,-96.44,43.29,17.05,10.25,5
1.00,-0.41,-0.88,-4.09,18.19,-122.56,41.46,27.97,6.80,5
0.90,-0.17,-0.69,28.56,24.54,-82.46,38.81,35.08,7.91,5
-0.04,-1.18,0.36,-252.99,497.99,-162.78,32.10,43.57,11.83,5
0.50,-0.72,0.07,53.53,192.32,-81.12,21.69,50.28,19.02,5
-0.24,-0.84,-1.16,100.16,-520.08,63.17,14.65,50.26,26.06,5
0.77,-0.88,-0.44,-480.41,291.69,135.68,35.21,39.66,4.58,5
0.33,-1.11,-0.01,-148.25,23.32,-63.96,29.71,46.69,9.79,5
0.50,-0.36,0.78,-500.24,-35.64,51.21,28.78,48.78,4.93,5
0.50,-0.57,0.62,-209.84,63.17,-10.50,33.67,37.45,-13.11,5
0.45,-0.70,0.42,-47.12,-25.21,-66.28,32.48,35.42,-15.33,5
0.55,-0.21,0.77,10.86,155.88,177.00,36.99,28.91,-11.95,5
0.79,-0.33,0.29,356.45,307.68,344.85,41.81,20.81,-2.51,5
0.28,0.43,-0.00,190.49,275.39,169.19,32.01,-10.22,12.99,5
0.46,0.34,-0.18,297.24,313.11,92.77,18.96,-19.86,13.56,5
0.22,1.14,-0.28,275.70,65.55,-5.13,13.23,-23.33,-0.50,5
0.47,1.32,-0.78,317.14,317.99,117.74,14.23,-22.44,-8.72,5
0.28,1.10,0.65,149.35,9.40,114.81,14.17,-1.46,-30.99,5
0.09,0.60,0.31,30.88,15.14,88.75,14.29,5.37,-34.44,5
-0.01,0.61,1.05,120.97,134.46,6.35,15.49,12.78,-36.55,5
-0.31,0.15,0.73,207.58,-100.34,7.63,19.40,15.41,-34.68,5
0.79,0.37,0.92,-88.75,20.45,56.27,17.31,29.08,-33.74,5
0.40,0.36,1.18,-167.91,234.80,40.16,27.73,16.19,-30.99,5
1.29,1.16,0.10,-132.75,181.03,-128.97,40.21,5.71,-14.15,5
0.43,1.06,0.45,-45.35,76.11,-233.28,42.90,8.33,-8.79,5
0.96,-0.04,0.06,-479.31,-175.60,316.83,43.73,14.47,-6.59,5
0.55,0.03,-0.61,-406.98,-50.48,162.90,29.98,-15.34,8.72,5
0.35,0.05,-0.80,-336.12,-45.35,-186.34,29.44,-4.09,29.03,5
0.40,-0.06,-0.72,61.65,-276.43,-307.25,42.22,9.52,13.60,5
0.70,-1.35,-0.41,278.26,-224.73,-548.22,42.29,28.63,2.61,5
0.63,-0.83,-0.50,-2.56,-333.80,-188.66,16.44,57.70,-3.52,5
0.27,-0.74,0.15,87.04,-65.37,237.18,12.61,58.90,-3.70,5
0.44,-0.63,0.12,178.65,-617.98,62.44,10.96,57.36,-10.49,5
0.24,-0.53,0.26,149.05,-8.91,78.12,9.81,57.76,-9.48,5
0.39,-0.48,0.05,-260.68,-34.48,20.26,16.70,56.14,-0.81,5
0.45,-1.27,0.96,241.21,-313.72,-174.68,11.66,59.83,-0.74,5
0.01,-0.65,0.44,-62.19,-51.51,-29.97,-0.16,62.77,4.15,5
0.02,-1.34,0.58,-86.55,-58.78,-162.96,-0.56,63.07,1.45,5
-0.29,-0.41,0.35,-643.19,430.60,25.88,-5.79,54.04,-20.12,5
0.24,0.80,0.25,-257.57,315.37,102.66,29.49,14.54,-24.67,5
1.42,0.50,-0.52,21.18,234.99,-38.27,41.02,9.33,2.99,5
0.35,0.72,-0.59,362.49,-178.22,-447.69,41.46,13.77,6.34,5
0.41,-0.48,-0.59,558.90,-50.35,-369.38,28.02,45.13,17.36,5
-0.30,-0.22,-1.60,257.63,49.99,-88.26,22.42,26.50,37.88,5
0.52,-0.49,-0.53,-181.88,11.60,51.57,19.79,30.20,39.36,5
0.85,-0.45,-0.41,-234.92,73.36,106.45,20.02,34.68,37.05,5
0.33,-0.72,-0.12,-81.18,71.96,105.35,19.06,42.02,32.82,5
0.56,-0.32,-0.61,-286.93,15.81,199.83,22.38,42.31,29.98,5
1.19,0.89,-0.20,-341.98,-84.17,206.05,30.29,44.90,14.94,5
1.12,-0.24,-0.14,-188.23,78.55,-61.10,28.86,46.17,16.16,5
0.88,-0.32,-0.06,9.64,21.85,-47.49,30.46,46.70,10.14,5
1.43,-0.39,-0.37,155.46,-88.56,81.67,32.98,43.53,10.22,5
1.45,0.04,-0.19,213.87,-143.49,192.69,40.56,29.80,8.48,5
0.10,0.21,0.71,115.48,30.03,347.47,42.20,15.98,7.64,5
-0.50,0.68,0.61,105.29,13.31,62.62,35.51,-7.90,6.82,5
-0.61,0.14,0.45,78.74,154.91,-373.90,39.01,-1.28,4.66,5
0.59,-0.40,-1.14,-147.34,388.06,-454.16,34.31,31.05,27.19,5
2.05,-1.71,-1.80,48.58,14.40,-85.94,18.20,42.54,36.91,5
0.72,-0.76,-0.41,35.52,-148.01,102.29,12.87,48.58,35.05,5
0.36,-0.40,0.16,-45.72,-114.99,103.64,29.57,41.27,25.49,5
0.76,-0.81,-0.26,106.51,-10.74,154.36,34.45,36.61,20.64,5
0.44,0.00,-0.36,639.89,217.41,-272.03,31.32,21.44,40.04,5
0.81,-0.65,0.08,865.60,95.64,-437.74,19.57,-5.26,34.45,5
0.88,0.73,-1.82,4.39,230.83,-209.53,32.09,-10.22,14.55,5
-0.02,0.35,-0.28,171.26,-29.48,-24.11,35.89,-7.04,17.38,5
0.91,0.31,-0.71,352.05,-107.67,49.87,32.73,-12.13,4.05,5
0.69,0.60,-0.40,98.27,-113.53,1.22,30.90,-10.10,-8.98,5
-0.04,0.22,-0.58,-70.50,-282.71,23.01,25.32,-3.83,-22.74,5
0.01,0.45,0.59,138.24,26.25,22.77,13.20,13.35,-35.88,5
0.68,0.36,0.98,68.42,29.66,-2.20,19.32,16.61,-34.56,5
0.67,0.13,1.14,40.10,117.74,-130.43,19.51,20.01,-33.61,5
1.11,0.93,-0.11,-21.06,109.50,-13.00,27.69,16.03,-29.24,5
0.72,0.96,-0.58,65.43,61.77,-29.60,32.54,10.64,-23.40,5
1.16,0.49,0.41,146.00,-39.73,-58.84,33.74,23.01,-22.73,5
-0.39,-0.91,2.11,-52.37,-194.58,-34.67,26.64,23.79,-28.20,5
-0.00,-0.90,0.08,-105.10,36.38,-45.35,18.70,28.60,-31.01,5
0.13,0.10,-0.53,55.36,65.86,381.16,24.83,10.39,-28.41,5
0.27,1.30,-0.40,3.66,-239.87,128.72,13.73,5.57,-35.50,5
-1.26,3.53,1.80,53.77,-192.50,252.26,-0.61,6.76,-37.05,5
-1.86,2.08,3.15,-86.12,-59.63,-330.38,-20.98,10.94,-34.53,5
-1.11,0.26,0.57,9.09,367.86,-315.61,4.13,-8.19,-29.72,5
0.16,-0.53,-1.10,206.67,173.16,-208.13,31.04,12.35,-21.61,5
0.18,-0.90,-0.84,245.12,-253.66,101.62,28.14,28.63,-23.61,5
-0.46,1.06,0.91,-198.55,-303.10,-7.08,21.67,28.71,-28.70,5
0.08,1.64,1.70,-111.82,39.98,39.12,7.93,22.20,-37.88,5
0.86,0.59,0.73,-54.75,98.94,-68.60,14.84,12.02,-37.11,5
1.39,0.46,0.02,-2.44,263.12,-181.27,36.85,27.17,-16.43,5
1.38,0.06,0.45,117.00,123.60,-2.20,36.84,37.26,-12.06,5
1.15,-0.30,0.32,249.33,-86.73,-119.93,35.11,42.83,3.16,5
0.39,-0.48,-1.17,-190.00,87.34,73.97,29.11,46.22,18.01,5
0.79,-0.03,0.41,148.99,-83.98,-217.10,31.37,46.45,6.64,5
1.21,-0.43,0.24,-323.67,-58.59,-129.03,26.82,51.65,3.47,5
0.76,-1.02,0.51,68.85,41.08,-103.45,17.33,53.17,-14.65,5
1.06,-0.68,0.06,147.95,42.79,152.22,15.89,55.65,-10.31,5
0.66,0.04,0.29,235.41,-116.94,328.98,32.28,45.57,-1.76,5
0.73,-0.01,0.59,-21.97,-215.03,279.30,39.93,32.86,-3.34,5
0.72,0.54,0.49,52.73,-46.08,119.69,41.24,11.95,-11.84,5
0.65,0.76,0.65,-95.64,-92.04,-73.49,37.95,8.18,-15.01,5
0.39,0.33,0.64,77.15,-187.44,-192.38,34.07,21.73,-21.75,5
0.60,-0.05,1.00,92.90,-135.50,-189.09,30.16,29.39,-23.72,5
0.00,-0.01,1.00,36.87,-111.82,-247.19,10.27,42.93,-27.83,5
0.09,-0.05,1.09,-138.61,6.96,241.39,-0.52,42.54,-30.70,5
0.45,0.53,0.89,94.12,115.23,95.89,9.58,37.96,-31.53,5
0.02,-0.09,1.14,-7.26,179.26,-94.06,15.31,40.04,-27.93,5
1.64,-0.45,0.05,-57.74,441.47,-130.13,26.77,40.69,-18.59,5
1.01,-0.16,0.11,-31.74,130.55,-6.96,32.06,42.00,-9.64,5
0.96,-0.15,0.06,-29.24,-73.73,79.77,36.11,38.85,-4.26,5
0.90,-0.17,0.35,65.73,-256.96,49.38,36.77,35.18,-9.28,5
0.70,0.31,0.52,24.35,-171.20,17.58,28.89,35.13,-21.55,5
0.34,-0.14,1.00,151.18,105.47,16.72,20.25,39.55,-25.85,5
0.89,-0.23,0.94,7.32,23.25,-6.65,25.02,43.88,-17.52,5
0.66,0.62,0.90,15.14,-67.99,-20.39,23.45,43.63,-20.50,5
0.53,-0.38,0.39,-276.61,176.70,-190.98,22.88,40.67,-23.96,5
1.10,0.19,0.30,-85.75,45.35,-52.06,27.45,37.88,-20.04,5
0.85,-0.03,0.35,-117.55,-13.61,-10.38,25.60,31.59,-25.90,5
0.68,-0.00,0.69,-88.50,-116.03,-80.93,19.70,28.31,-30.62,5
0.72,0.07,0.54,-82.34,-37.29,-39.67,15.19,26.07,-33.57,5
0.70,0.08,0.65,-67.14,-19.84,-96.13,10.60,21.29,-35.83,5
0.65,-0.05,0.70,-12.76,-16.78,-78.86,10.36,19.31,-35.44,5
0.98,0.25,0.62,-97.96,34.67,-123.17,9.81,16.56,-35.55,5
0.41,-0.02,0.76,-99.61,-20.69,-131.71,7.08,14.31,-37.27,5
0.76,-0.11,0.74,-47.36,-44.19,-113.89,10.13,8.18,-34.66,5
0.70,-0.11,0.59,-9.83,-23.13,81.73,9.07,6.02,-34.81,5
0.62,-0.01,0.72,-94.36,-21.55,-83.44,8.61,2.16,-32.90,5
0.38,0.40,0.70,-77.58,-4.82,-77.58,9.94,-1.22,-31.56,5
0.61,-0.32,0.96,-39.49,-4.52,5.55,12.48,-4.38,-30.16,5
0.43,0.06,0.81,-27.04,-2.14,-22.46,11.10,-5.46,-29.19,5
0.63,0.05,0.72,-44.43,150.02,-131.90,21.19,-5.92,-24.60,5
0.76,-0.09,0.76,-48.58,-7.02,-53.22,26.31,-5.21,-21.81,5
0.59,0.07,0.76,-43.88,-4.09,-156.74,28.31,-2.38,-20.78,5
0.52,-0.20,0.77,-20.75,-10.93,-50.35,32.45,1.27,-20.86,5
0.47,-0.24,0.85,-97.53,97.11,-155.64,35.27,5.87,-18.93,5
0.89,0.02,0.61,-40.04,-5.07,-6.10,38.66,8.47,-13.68,5
0.70,0.29,0.63,-50.72,16.11,-93.08,38.60,8.69,-14.38,5
0.90,0.04,0.71,-162.60,211.91,-40.41,41.67,11.50,-6.98,5
0.80,0.08,0.73,-60.67,-8.12,-33.69,42.60,9.51,-1.06,5
0.75,0.09,0.68,-50.48,-104.06,-56.03,42.24,12.51,-7.73,5
0.90,0.07,0.82,-86.00,-2.20,-90.82,41.19,15.31,-9.30,5
0.80,0.07,0.75,-32.23,-1.77,-54.63,40.76,19.32,-10.01,5
0.47,-0.03,0.74,-9.16,-33.94,-64.76,39.49,24.17,-11.98,5
0.57,-0.22,0.64,43.52,-36.50,-19.84,36.78,30.15,-12.26,5
0.47,-0.01,0.75,-85.57,3.54,-98.82,35.16,28.97,-16.05,5
0.50,-0.03,0.94,-98.02,25.39,-32.47,33.41,32.25,-17.85,5
0.53,0.17,0.86,-72.39,-4.03,-37.05,34.00,30.19,-15.87,5
0.67,-0.04,0.79,-5.62,31.98,-38.45,33.24,32.18,-17.10,5
0.64,0.04,0.67,-131.53,23.80,-41.26,33.02,32.95,-16.42,5
0.79,0.42,0.73,-54.87,44.01,31.68,34.06,30.07,-17.76,5
0.83,0.14,0.62,-44.80,92.35,-76.05,36.23,28.82,-14.67,5
0.91,0.11,0.50,-141.60,8.97,-157.23,35.34,33.80,-14.11,5
0.62,0.19,0.57,2.14,-133.97,-33.26,30.88,35.55,-16.91,5
0.88,-0.18,0.76,-25.70,-70.19,-35.77,23.39,37.73,-24.68,5
0.55,0.02,0.75,11.66,-74.46,7.45,19.08,37.04,-27.16,5
0.49,0.04,0.92,7.63,-96.86,26.06,11.78,38.59,-30.13,5
0.55,-0.02,0.93,-17.27,5.86,-14.40,11.17,37.66,-30.86,5
0.36,-0.15,0.86,23.99,-3.36,24.90,11.16,37.54,-30.70,5
0.32,-0.01,0.98,72.14,-117.86,149.41,10.68,39.47,-29.48,5
0.34,-0.09,1.07,12.51,-68.36,46.45,9.44,39.84,-29.98,5
0.03,0.11,0.92,-3.11,-69.64,42.66,8.84,38.54,-30.02,5
-0.04,0.08,1.02,10.19,-60.30,-4.76,7.26,38.16,-30.73,5
0.11,-0.08,1.05,-33.39,1.89,-8.00,4.00,38.22,-32.08,5
-0.05,0.05,0.98,-38.27,-21.00,39.79,5.03,35.93,-31.98,5
-0.19,0.06,1.05,34.91,-154.54,-21.18,-3.42,36.46,-31.46,5
-0.32,0.16,0.90,-62.19,-14.95,31.74,-6.47,35.66,-33.26,5
-0.54,0.16,0.76,71.78,-155.94,4.88,-8.48,33.97,-33.64,5
-0.74,-0.72,0.29,237.18,-57.43,150.57,-16.28,45.28,-22.73,5
-0.45,-0.41,1.10,-50.23,69.27,19.47,-12.76,49.57,-20.83,5
-0.90,-0.38,-0.23,235.90,-250.61,160.10,-10.51,49.99,-19.69,5
-0.84,-0.48,0.51,43.76,-105.53,65.31,-3.34,60.22,2.26,5
-1.01,-0.81,-0.10,-192.14,213.26,68.97,2.82,59.42,-0.33,5
-0.41,-0.72,0.36,-184.33,13.37,-128.91,1.16,56.08,-14.33,5
0.27,-0.11,0.19,-474.67,668.58,-61.46,0.24,54.04,-17.57,5
-0.27,0.69,1.69,-99.98,-129.39,-48.03,28.05,27.65,-23.38,5
0.62,-0.10,0.44,417.54,-273.07,-357.24,15.93,46.22,-20.20,5
-0.36,-0.31,0.70,-52.73,-145.75,-131.10,-3.09,54.06,-17.61,5
-0.93,-0.31,0.98,-58.90,-58.72,-92.10,-11.73,51.29,-20.87,5
-0.74,-0.15,0.80,-96.07,-39.86,22.22,-17.74,45.28,-22.95,5
-0.74,-0.08,0.66,34.36,-94.18,17.09,-19.42,43.82,-22.62,5
-0.59,-0.20,0.50,39.43,-48.58,21.36,-19.02,46.94,-18.31,5
-0.61,-0.10,0.47,-83.80,8.18,-17.21,-20.12,47.14,-19.30,5
-0.94,-0.20,0.70,-73.97,-0.37,6.04,-21.18,43.30,-22.08,5
-0.69,-0.08,0.65,-43.70,-22.28,-36.62,-22.14,41.02,-24.93,5
-0.89,-0.04,0.72,8.06,17.52,22.95,-23.03,39.25,-26.17,5
-0.82,-0.01,0.67,37.78,14.65,10.38,-21.73,40.01,-25.78,5
-0.77,-0.13,0.57,29.66,-1.59,-0.67,-19.91,41.72,-24.33,5
-0.85,-0.02,0.66,-45.53,6.71,-21.67,-20.80,42.49,-23.85,5
-0.75,-0.15,0.65,18.25,-21.55,26.25,-20.69,42.08,-25.13,5
-0.82,-0.12,0.59,-0.85,-17.52,-5.19,-21.51,42.09,-24.12,5
-0.76,-0.33,0.44,111.08,-81.67,-20.20,-23.35,44.43,-21.04,5
-0.75,-0.05,0.58,15.14,166.93,-78.86,-24.39,45.91,-16.65,5
-0.71,-0.22,0.72,24.78,20.20,-44.86,-20.54,43.18,-22.97,5
-0.62,-0.11,0.75,48.65,0.85,-72.81,-23.62,42.48,-21.55,5
-0.59,0.06,0.76,59.14,79.53,-153.69,-25.62,41.83,-20.80,5
-0.41,0.30,0.78,-3.91,31.25,-52.06,-25.63,35.25,-25.71,5
-0.55,-0.44,1.03,10.44,4.64,-137.21,-26.61,31.51,-28.45,5
-0.19,0.27,0.93,-65.98,23.01,-135.74,-26.00,29.80,-27.94,5
-0.63,0.12,1.08,55.73,36.62,34.12,-27.50,28.27,-27.39,5
-0.26,0.01,1.01,12.33,-66.71,-68.36,-28.17,33.29,-25.48,5
-0.41,0.17,0.90,-60.91,-4.94,12.94,-29.57,34.25,-22.35,5
-0.50,-0.01,0.89,-25.21,-102.23,4.09,-32.74,32.67,-19.52,5
-0.92,0.19,0.46,-15.26,-35.58,-1.71,-33.45,33.23,-19.80,5
-0.58,0.03,0.77,115.11,23.80,-99.12,-34.28,31.58,-17.48,5
-0.64,0.12,0.70,91.25,-77.33,-156.56,-37.62,27.40,-13.66,5
-0.32,0.02,0.73,119.93,-21.30,-145.45,-39.42,20.74,-13.53,5
-0.90,-0.45,1.24,135.86,-12.33,-128.05,-39.38,17.82,-12.72,5
-0.63,0.16,0.67,21.30,-77.15,-78.06,-39.38,11.00,-9.03,5
-0.78,0.11,0.66,51.88,-72.57,-16.17,-40.55,7.04,-4.87,5
-1.04,-0.35,0.56,-8.30,-13.67,7.63,-40.36,6.56,1.23,5
-0.60,0.32,0.42,-258.42,39.98,95.58,-40.61,7.45,1.66,5
-0.68,0.21,0.27,-172.91,-28.50,-28.08,-42.00,13.70,2.06,5
-0.68,0.44,0.47,22.09,117.49,-13.43,-41.87,10.33,2.67,5
-0.39,-0.18,0.75,271.85,42.48,-25.94,-40.21,10.42,-6.32,5
-0.53,-0.17,0.84,104.80,67.44,-14.10,-40.41,14.97,-8.72,5
-0.52,-0.30,0.93,-20.26,49.38,-66.77,-37.62,17.35,-14.58,5
-0.66,-0.08,0.78,4.52,129.58,-4.21,-35.89,12.74,-17.69,5
-0.35,-0.30,0.97,50.60,121.64,5.49,-27.84,14.62,-27.14,5
-0.33,-0.09,0.79,0.67,-45.90,18.25,-24.66,14.38,-28.03,5
-0.47,-0.21,0.77,88.07,61.10,23.01,-27.71,15.67,-25.71,5
0.10,-0.57,1.15,33.45,153.20,14.59,-22.38,22.56,-31.41,5
0.25,-0.31,0.54,-71.11,441.53,123.66,-1.78,19.43,-35.75,5
0.84,0.23,0.62,260.38,386.23,188.90,14.18,16.32,-33.33,5
1.29,-0.56,-0.23,359.62,253.05,-138.43,32.98,27.82,-18.57,5
0.58,-0.08,-0.68,350.89,136.90,-265.44,32.68,43.21,9.77,5
0.32,0.38,-1.10,133.42,-27.89,-312.56,12.88,44.81,33.44,5
0.10,-0.63,-0.72,-105.41,-349.61,-401.43,7.32,48.97,33.53,5
1.02,-0.64,-0.02,-9.03,-131.29,-163.70,-4.83,47.36,33.89,5
0.74,-0.78,-1.07,-79.53,21.85,-282.04,14.88,32.32,39.90,5
1.04,-0.18,0.64,-409.79,-229.55,-193.30,16.80,46.15,30.87,5
0.25,-0.81,-0.30,-325.32,-239.99,122.38,23.32,52.42,-1.28,5
-0.18,0.10,1.15,-13.61,-214.48,70.19,28.16,45.92,-8.50,5
-0.95,0.40,1.96,-76.48,116.21,-462.22,21.77,47.92,-17.41,5
-1.59,-3.87,0.94,-590.39,317.69,-476.81,-9.14,43.52,-29.74,5
-0.05,1.13,-0.44,481.20,342.35,102.36,20.15,28.26,-28.05,5
-0.44,0.05,1.23,546.26,-120.79,539.25,29.36,46.56,0.90,5
0.77,-0.30,-0.25,212.65,66.16,-128.97,36.85,10.30,23.97,5
0.71,-1.05,-1.35,-162.05,321.96,-153.32,35.24,13.18,29.47,5
0.72,-1.52,-0.42,-152.77,136.60,-100.16,24.99,24.37,39.70,5
-0.23,-2.49,-0.26,-460.27,333.07,-130.68,21.67,36.84,36.39,5
0.03,-1.51,0.88,-186.10,73.18,123.29,10.80,61.63,8.02,5
0.45,-0.72,0.95,-252.50,11.96,86.18,19.95,55.74,-8.83,5
0.57,-0.36,0.57,165.65,84.11,32.04,25.10,48.46,-15.81,5
0.54,-0.09,0.21,733.28,539.25,118.77,28.88,51.62,-1.38,5
0.79,-0.28,-1.56,463.87,143.62,-186.95,9.38,18.40,46.98,5
0.48,-0.08,-1.20,-61.58,-19.90,-146.73,11.71,-2.84,43.75,5
0.46,0.17,-0.77,76.05,36.13,-108.28,17.08,-4.10,40.83,5
0.33,-0.21,-1.20,-53.89,51.33,-210.63,17.36,-3.89,39.98,5
0.20,-0.22,-0.85,60.55,-3.91,19.59,22.07,3.21,39.98,5
0.22,0.04,-0.89,247.13,-179.08,2.26,26.81,-3.70,33.73,5
0.69,0.35,-0.80,142.21,-32.59,-27.77,31.60,-10.91,22.92,5
0.18,0.31,-0.65,68.97,-103.09,-23.01,31.63,-14.89,11.54,5
1.13,0.21,-0.59,-129.52,82.64,-267.09,36.55,-8.76,10.71,5
0.31,-0.01,-1.13,-123.60,80.08,-140.81,36.95,14.14,26.68,5
0.24,-0.33,-0.72,211.24,-100.46,1.65,37.99,15.17,26.09,5
0.63,-0.77,-0.69,225.95,-197.81,-11.60,43.13,15.78,7.87,5
0.88,0.16,-0.14,235.78,-220.09,-16.05,43.44,16.37,-0.61,5
0.85,-0.24,0.06,153.99,-132.14,-32.10,37.11,20.78,-16.10,5
1.09,0.55,0.60,-1.59,-43.46,30.46,32.26,23.63,-22.28,5
0.70,1.08,-0.49,-498.96,258.54,304.08,38.00,3.32,-11.78,5
0.34,0.64,-0.47,391.17,-12.51,-191.77,34.70,-10.85,-0.39,5
0.58,0.65,-0.44,329.22,-97.78,-346.01,38.84,8.48,-11.36,5
0.01,-1.34,-0.13,170.78,-147.64,-346.31,28.00,43.32,-14.54,5
0.31,-0.83,0.97,-96.25,-120.42,380.19,23.13,38.21,-23.95,5
0.84,1.30,0.98,77.27,56.03,247.31,27.20,32.65,-26.27,5
0.93,1.50,0.19,-203.74,-81.97,69.95,32.63,27.31,-21.81,5
0.89,-0.27,1.08,-7.63,-19.65,-30.76,29.31,18.87,-27.83,5
0.51,0.81,0.46,-113.53,42.79,90.94,30.09,18.76,-25.83,5
0.66,0.72,0.64,-53.71,-10.80,-80.26,32.73,14.11,-24.05,5
0.89,0.27,-0.42,-193.66,291.93,-93.51,36.39,13.79,-19.43,5
0.93,0.98,-0.71,-100.83,-76.05,-146.24,43.40,8.70,2.43,5
0.17,-0.40,0.08,171.69,-509.77,-142.15,34.70,28.58,-21.23,5
0.48,-0.60,0.72,-77.94,-63.78,81.05,15.60,46.52,-24.32,5
1.71,1.28,-0.53,-522.71,203.92,206.30,25.17,35.31,-26.90,5
0.50,-0.04,0.05,-168.52,101.75,-25.02,35.36,5.93,-21.45,5
0.83,0.25,0.53,354.92,-364.38,-40.89,28.99,9.22,-29.64,5
0.51,-0.15,1.06,-22.89,-50.11,50.35,14.34,37.27,-31.51,5
0.59,-0.30,0.91,-18.01,22.03,86.73,15.82,33.89,-33.22,5
1.02,0.31,0.68,75.26,67.32,124.02,20.97,33.06,-33.44,5
0.88,0.53,0.46,-30.33,76.72,235.60,30.57,27.50,-26.39,5
0.96,0.56,0.83,63.11,13.00,136.84,31.73,19.40,-27.19,5
0.81,1.05,0.54,-46.81,-6.59,-109.80,32.67,16.74,-25.82,5
0.60,0.30,0.53,-159.48,-8.67,-229.86,33.78,19.82,-22.94,5
0.57,-0.69,0.71,137.39,-61.16,-342.90,27.16,33.06,-25.10,5
0.28,-0.33,0.51,-169.68,114.14,342.59,22.88,38.17,-26.46,5
1.24,0.89,0.85,-217.35,-104.68,-14.65,29.97,18.90,-25.60,5
0.43,0.04,0.19,-123.54,-17.03,72.39,22.63,8.61,-31.19,5
0.51,0.28,0.88,117.31,21.24,-33.51,24.11,-3.72,-24.85,5
0.85,0.46,0.39,144.59,-36.50,46.20,24.66,6.32,-29.26,5
0.98,0.36,0.37,65.98,-68.85,-32.71,22.53,8.76,-32.29,5
-0.54,-0.99,1.24,51.15,29.17,-15.63,13.87,17.00,-34.47,5
3.17,0.09,-0.18,-89.36,337.46,180.42,31.23,10.23,-23.78,5
0.46,0.87,0.14,102.05,-125.61,80.87,13.94,7.50,-33.97,5
0.34,0.76,0.30,21.30,206.18,23.93,17.91,6.01,-32.51,5
0.36,0.59,0.64,60.24,62.68,-42.60,20.79,8.52,-32.48,5
0.39,0.72,1.87,-180.11,63.96,163.76,25.13,8.51,-29.53,5
0.44,1.14,0.33,62.32,-79.22,59.33,23.17,3.42,-28.52,5
0.43,0.84,0.68,107.91,52.98,-27.40,18.90,9.69,-33.06,5
0.75,1.07,1.02,127.26,-100.40,-2.50,21.29,16.41,-33.04,5
-0.29,0.22,0.82,192.93,-127.87,-133.06,13.01,24.67,-35.77,5
-0.28,-0.15,0.74,101.62,-87.16,-56.09,2.23,42.88,-28.87,5
0.24,0.15,0.67,239.93,-26.73,41.08,-3.41,52.26,-20.28,5
0.41,-0.62,0.49,334.78,241.39,112.49,7.70,58.86,-6.25,5
0.18,-1.27,-0.27,183.04,-169.98,50.90,9.66,57.76,18.93,5
0.44,-0.87,-0.37,387.70,-210.51,194.34,26.28,39.26,29.61,5
1.04,-0.25,-0.92,357.97,-163.39,65.49,40.92,12.44,18.53,5
0.87,-0.13,0.23,227.48,-25.51,-21.36,42.97,8.57,4.80,5
1.32,-0.71,-0.82,257.69,-2.50,-70.13,43.62,15.22,5.71,5
1.13,-0.06,-0.30,66.77,-203.31,89.54,43.59,13.01,-4.59,5
1.15,0.02,-0.16,226.38,-142.64,45.65,38.61,5.53,-14.75,5
0.82,0.30,-0.10,127.99,-15.38,52.37,36.40,5.18,-17.58,5
0.41,0.49,0.24,-154.79,-105.59,63.42,32.26,3.19,-20.25,5
0.88,0.75,0.33,-81.97,97.78,-56.03,30.36,-6.84,-16.69,5
0.48,0.05,-0.23,-148.80,102.17,-115.30,33.95,-4.49,-9.00,5
0.99,-0.22,-0.63,-155.40,114.07,-150.82,40.47,2.37,10.34,5
0.23,-1.03,-0.51,-298.65,201.90,-203.80,40.23,23.47,17.15,5
0.01,-1.13,-0.58,-405.33,237.49,-64.58,29.54,43.88,20.39,5
0.07,-0.95,0.01,67.57,-158.08,115.42,26.29,50.10,12.55,5
0.45,-1.23,0.16,-108.09,-21.48,-36.25,29.85,47.73,8.06,5
0.30,-0.73,-0.10,-33.14,37.60,35.22,30.65,47.40,6.73,5
0.20,-0.94,0.26,-101.62,47.24,-12.63,31.43,46.80,5.41,5
0.06,-0.89,0.54,-107.91,35.03,-56.82,28.83,49.08,1.43,5
0.25,-0.86,0.42,-120.48,143.62,35.10,26.83,50.15,2.04,5
0.44,-0.47,0.42,-320.62,146.06,-47.36,29.22,48.71,-1.93,5
0.57,-0.17,1.04,-300.84,61.58,18.37,30.04,42.88,-11.34,5
0.30,-0.09,0.86,-15.75,-5.00,-22.77,29.27,36.27,-19.65,5
0.87,0.48,0.40,-480.29,303.96,-3.66,36.89,28.10,-14.71,5
0.56,0.38,0.61,-261.84,-151.37,-37.41,36.40,26.60,-16.77,5
0.72,0.41,0.41,-120.97,-142.46,-22.89,28.80,15.22,-26.42,5
0.48,0.55,0.65,-181.88,-115.91,-39.86,21.13,11.35,-32.03,5
0.44,0.52,0.81,132.87,-125.24,-34.48,12.39,6.91,-35.19,5
0.57,-0.03,1.03,231.69,166.14,-178.71,9.86,12.43,-35.75,5
1.16,0.11,0.50,-59.75,146.85,-95.21,22.92,24.00,-32.23,5
1.04,0.63,-0.02,-121.40,17.70,-40.47,27.32,20.95,-28.56,5
0.57,0.43,0.82,-39.25,-64.27,222.72,19.84,12.00,-34.19,5
0.50,0.55,0.76,58.72,-12.02,-33.33,17.61,9.94,-34.63,5
0.57,0.69,0.76,86.12,-18.86,83.86,15.30,12.72,-33.94,5
0.40,0.09,1.31,174.74,147.64,-40.34,16.44,26.06,-34.57,5
0.71,-0.26,0.70,-59.39,-36.13,-330.99,16.35,40.11,-27.62,5
0.57,-0.25,0.98,4.64,-71.29,-137.15,13.32,42.90,-27.34,5
0.48,-0.26,0.52,9.58,-72.94,-20.08,9.14,44.48,-28.28,5
0.84,-0.58,1.08,26.18,-23.68,-76.23,2.81,49.24,-25.59,5
0.31,-0.16,0.54,-202.82,-182.31,-157.84,-11.07,40.06,-32.54,5
-0.16,-0.42,1.51,-105.35,-155.88,-220.28,-19.31,32.39,-31.87,5
-0.20,-0.18,0.95,-0.43,-55.05,-131.35,-30.32,15.26,-27.54,5
-0.33,-0.02,0.98,-8.97,-150.33,-63.54,-33.22,8.63,-22.07,5
-1.09,0.21,0.69,-8.18,-332.64,-16.91,-40.09,2.98,-4.86,5
-1.45,0.45,0.55,-23.80,72.02,63.05,-41.64,5.91,3.34,5
-0.57,0.06,0.32,42.85,223.88,166.75,-41.36,10.95,-7.76,5
-0.40,-0.05,0.42,-88.20,-282.53,-52.49,-39.78,18.35,-10.17,5
-0.54,-0.07,0.32,40.71,-354.13,55.66,-41.74,14.79,13.39,5
-0.96,0.12,-0.09,-126.16,-4.64,1.46,-31.43,20.37,34.16,5
-1.31,0.10,0.11,80.26,322.81,57.43,-36.29,23.93,28.89,5
-0.88,-0.19,0.29,-32.65,-62.19,-34.12,-44.17,27.55,0.45,5
-0.98,-0.21,0.01,71.47,-316.47,-36.68,-42.59,23.12,18.41,5
-0.88,0.02,-0.53,-117.80,-384.46,-50.11,-9.91,26.26,45.43,5
-0.33,-0.13,-1.40,-71.35,-120.42,-50.66,6.63,27.64,46.84,5
-0.35,-0.10,-1.41,153.14,42.11,-13.55,11.63,33.72,43.51,5
-0.49,-0.25,-0.95,-10.93,-128.11,-79.59,14.21,25.18,46.20,5
-0.34,0.09,-1.14,-23.44,261.41,176.39,9.05,25.63,46.61,5
-0.83,-0.75,-0.98,24.84,449.83,35.34,-11.24,17.36,46.77,5
-1.23,0.05,-0.32,-162.84,511.90,-44.80,-40.26,26.12,24.30,5
0.30,0.04,0.20,-49.99,73.61,148.25,-41.96,29.91,-8.18,5
-1.07,-0.33,-0.20,193.97,-563.17,145.32,-35.75,37.61,26.12,5
-1.16,-0.53,-0.50,213.26,-81.97,-49.07,-25.55,26.11,40.63,5
-0.98,-0.34,-0.90,203.55,121.28,31.01,-25.60,23.96,40.12,5
-1.04,0.08,0.40,325.87,-55.18,-220.34,-30.02,6.24,32.26,5
-0.84,0.45,-0.48,10.50,-66.41,-161.80,-11.19,-12.45,31.48,5
-0.18,0.61,-0.91,-209.59,-72.20,-108.58,5.22,-7.21,39.32,5
-0.73,-0.13,-0.82,-261.23,131.84,81.48,2.26,5.00,44.41,5
-0.28,-0.24,-0.19,-95.46,806.64,241.21,-22.94,23.79,38.54,5
-0.58,-0.55,0.37,-102.42,12.21,62.26,-38.05,41.92,10.82,5
-1.03,-0.43,0.11,230.65,-190.00,-107.36,-36.58,39.87,16.46,5
-0.86,-0.42,-0.55,156.74,-548.28,-181.88,-31.96,27.31,31.67,5
-0.48,0.48,-1.28,150.94,-744.57,-22.22,12.29,13.61,44.06,5
0.33,0.14,-0.96,139.53,-233.34,-136.41,35.84,8.61,25.98,5
0.56,-0.00,-0.45,23.19,-38.94,-16.48,42.13,10.46,13.09,5
0.18,0.35,-0.89,-127.99,244.38,82.76,42.10,12.11,16.71,5
-0.32,-0.64,-1.06,-342.10,472.47,-14.40,25.87,19.13,39.12,5
-0.65,-0.39,-0.68,-256.23,653.50,50.84,-14.27,38.75,38.88,5
-1.02,-0.92,0.14,-118.41,352.60,-49.26,-38.24,44.27,4.76,5
0.04,0.01,0.81,-69.09,280.40,72.20,-33.28,43.46,-12.59,5
0.13,-0.21,0.62,17.09,249.88,-6.96,-16.83,37.02,-30.15,5
0.36,-0.11,0.52,87.16,-91.31,-80.20,-8.85,38.16,-33.03,5
-0.29,-0.82,0.75,338.68,-475.95,-131.16,-28.19,48.01,-10.40,5
-0.60,-1.26,0.04,115.78,101.07,35.89,-33.51,46.02,8.20,5
-0.76,-0.95,-0.02,247.99,-22.58,63.84,-31.54,41.43,20.25,5
-0.52,-0.79,-0.22,54.57,-24.54,-91.31,-31.34,36.39,28.52,5
-0.74,-0.33,-0.66,87.89,220.40,-98.88,-38.17,28.74,24.72,5
-1.12,-0.60,-0.25,224.00,252.14,-110.17,-42.31,23.05,14.98,5
-1.09,-0.53,0.00,124.63,177.31,-3.66,-42.03,16.71,-4.26,5
-0.46,-0.40,0.34,-32.96,-233.58,217.77,-41.05,23.29,-8.58,5
-0.28,-1.06,-0.55,113.34,-186.71,303.28,-36.07,44.71,5.93,5
-0.04,-0.77,-0.40,136.35,-282.78,50.17,-24.32,50.37,19.15,5
0.86,-0.37,-0.68,-7.32,-41.02,-22.34,-4.71,46.17,36.06,5
0.49,-0.76,-0.63,-57.98,161.93,-129.46,-8.15,46.02,33.85,5
-0.42,-0.49,-0.57,-32.47,396.91,-116.09,-30.19,45.54,18.99,5
-0.28,-0.82,-0.37,169.86,94.97,75.32,-35.61,44.87,9.73,5
-1.16,-0.73,-0.64,24.41,379.64,5.62,-32.85,48.21,3.80,5
-0.36,-0.58,-0.05,-146.73,301.94,-145.02,-24.89,43.87,-19.70,5
-0.97,-0.51,0.39,-88.32,135.25,-48.95,-17.61,29.63,-31.23,5
-0.60,-0.36,0.51,-48.58,-37.29,83.13,-12.54,26.01,-34.67,5
-0.91,-0.82,0.96,-22.52,137.27,28.02,-12.56,27.65,-34.50,5
-0.10,-0.42,1.07,-128.97,195.98,88.32,4.16,21.91,-36.15,5
0.16,-0.33,1.00,-173.71,193.66,111.76,21.96,8.67,-30.13,5
0.34,-0.06,1.03,-138.37,190.31,13.06,33.25,-3.19,-11.44,5
0.96,0.23,0.89,-127.99,47.79,93.51,34.61,-6.71,-6.51,5
0.58,0.60,0.15,156.01,95.95,63.90,30.41,-13.13,3.48,5
0.69,0.24,0.45,121.15,174.01,37.11,26.88,-17.00,1.28,5
0.63,-0.07,0.81,282.23,-20.57,-117.25,26.68,-15.12,-5.00,5
1.37,-0.69,1.21,199.04,-131.23,-337.83,30.15,-4.20,-16.20,5
0.54,-1.32,1.00,119.63,-174.44,-36.13,25.44,22.41,-27.87,5
-0.15,-0.48,0.57,63.35,-176.03,-256.59,9.57,33.58,-33.64,5
-0.47,-0.50,-0.09,79.28,-204.10,-155.46,-15.08,38.75,-30.24,5
-1.09,-0.94,-0.08,42.91,-43.03,-190.55,-28.81,36.61,-21.20,5
-0.97,-0.49,0.16,143.01,-16.42,-109.19,-31.38,33.54,-21.06,5
-0.94,0.06,0.25,-5.00,36.74,-157.90,-35.83,28.38,-19.35,5
-0.92,0.60,-0.13,-19.96,-23.44,-22.95,-35.99,17.40,-18.21,5
-1.06,0.00,0.31,-21.79,-67.32,47.30,-36.15,21.55,-16.99,5
-0.55,1.17,0.51,19.23,-18.62,34.36,-37.82,22.06,-16.27,5
-0.90,-0.27,0.08,-147.46,215.64,122.68,-37.98,24.57,-16.13,5
-0.80,-0.10,0.10,-28.69,116.33,99.85,-28.12,24.54,-26.25,5
-0.56,-0.50,0.64,-22.52,314.39,71.78,-8.47,28.49,-33.22,5
-0.07,-0.44,0.69,-26.31,356.87,-26.73,5.97,26.99,-34.83,5
0.22,-0.47,0.33,-60.18,637.82,-64.39,34.88,28.37,-14.69,5
1.02,-0.27,-0.16,-73.85,351.68,-59.94,38.28,25.68,18.69,5
1.12,-0.23,-0.50,253.36,217.41,-37.78,25.15,22.56,38.56,5
0.94,-0.13,-0.66,30.03,50.78,-7.81,18.12,13.23,42.76,5
0.84,-0.39,-0.53,94.60,-137.33,-121.40,17.82,11.07,41.67,5
1.10,-0.33,-0.49,-114.32,-184.81,-11.78,33.70,22.23,29.98,5
0.63,-0.51,0.25,-132.32,-270.39,15.26,41.58,23.01,10.23,5
0.47,0.05,0.36,-184.33,-167.54,10.80,42.38,19.93,-0.38,5
0.35,0.02,0.75,-131.10,-399.29,50.42,37.70,16.50,-15.53,5
0.01,-0.66,1.77,106.26,-159.85,-176.21,18.70,10.93,-32.03,5
-1.32,0.37,0.90,-37.29,-261.17,54.08,-3.02,5.37,-33.89,5
-0.75,0.54,0.50,-128.72,-22.58,-63.48,-10.58,3.54,-32.39,5
-0.60,0.54,0.16,-185.49,-5.37,-212.71,-9.58,-7.69,-24.85,5
-0.17,0.91,0.10,-19.17,108.64,-67.14,7.23,-17.65,-17.00,5
-0.26,0.99,0.08,-35.89,118.10,-80.87,11.83,-19.59,-10.56,5
0.12,1.09,0.40,-28.69,141.30,-168.15,20.83,-18.21,-5.86,5
0.30,0.72,0.10,96.92,-17.33,-292.85,35.74,-4.26,-3.91,5
0.62,0.12,0.22,-4.27,101.62,-302.25,42.29,18.16,-2.19,5
1.25,-0.10,-0.14,28.63,26.92,-374.02,33.15,45.02,4.70,5
0.86,-0.57,-0.14,19.29,5.86,-246.46,23.43,54.38,8.09,5
0.91,-1.08,-0.15,169.62,-10.99,-159.24,6.86,60.63,14.33,5
0.31,-0.84,-0.40,142.03,19.59,-207.09,-5.71,57.10,26.46,5
0.02,-0.70,-0.74,210.33,118.71,-212.40,-22.91,38.33,36.69,5
-0.44,-0.41,-0.78,163.70,146.85,-230.83,-29.65,28.83,35.62,5
-0.39,0.01,-0.75,51.33,169.13,-45.65,-35.39,6.54,27.99,5
-1.41,-0.64,-0.47,-12.02,44.43,72.88,-44.73,15.42,16.74,5
-1.09,0.11,-0.84,-23.56,40.22,105.96,-46.84,24.37,11.00,5
-0.69,-0.15,-0.47,221.13,130.00,77.70,-47.19,25.70,8.74,5
-0.87,-0.26,-0.41,-34.79,189.58,77.15,-47.00,30.08,0.10,5
-0.99,-0.46,0.31,-221.31,284.24,-19.23,-39.60,28.11,-21.56,5
-0.77,-0.10,0.30,179.02,51.21,-9.58,-27.37,23.00,-31.01,5
-1.01,-0.18,0.55,-10.99,-149.90,-121.83,-31.82,28.86,-27.44,5
-1.14,0.16,0.11,-55.54,248.84,-464.23,-37.06,10.73,-23.67,5
-0.18,0.58,0.37,-58.35,-27.04,-211.43,-6.75,-9.86,-28.25,5
-0.03,1.46,0.15,-183.84,-72.08,-43.58,-6.03,-19.15,-16.48,5
-0.44,0.19,-0.47,86.67,-136.41,-80.63,0.23,-22.33,-7.14,5
-0.96,0.26,-0.08,223.08,120.85,-261.05,6.85,-22.74,-5.86,5
1.20,1.16,0.16,522.40,-251.71,124.39,22.18,-15.67,-17.44,5
0.37,0.84,1.06,213.87,141.11,27.28,14.83,4.86,-34.38,5
-0.42,-0.05,1.07,170.29,0.67,-0.67,10.34,21.30,-36.82,5
0.44,0.53,1.08,39.12,40.53,-55.66,9.07,27.06,-36.24,5
-0.11,0.12,0.51,190.12,3.36,7.14,4.87,36.23,-34.84,5
0.20,-0.24,1.39,138.12,181.03,139.53,9.42,45.08,-29.03,5
0.07,-0.98,1.29,465.27,326.23,246.58,26.81,52.64,4.92,5
0.02,2.51,-0.19,845.15,213.99,629.88,34.02,28.06,31.60,5
0.46,0.64,-1.30,116.21,88.38,-298.28,22.63,-13.59,28.48,5
0.84,-1.86,-0.91,238.22,-95.03,-225.71,35.68,0.15,22.74,5
0.49,-0.64,0.60,53.89,15.87,-98.14,40.58,1.17,11.23,5
0.76,-0.45,-1.27,-25.82,239.07,-64.82,39.34,6.88,19.92,5
0.38,-0.83,-0.12,-133.00,36.56,81.91,29.75,10.88,34.89,5
-0.04,-1.19,-1.18,-315.00,61.65,-25.94,20.97,18.90,42.92,5
0.10,-0.49,-0.65,-104.86,81.85,27.10,14.81,37.21,39.37,5
-0.25,-1.16,-0.44,-61.16,-12.02,46.26,14.12,44.60,34.79,5
0.17,-0.94,-0.49,91.06,41.14,5.31,16.94,41.94,35.12,5
0.59,-0.50,-0.88,186.40,-72.45,18.07,16.16,33.29,40.66,5
0.58,-0.16,-1.05,733.76,-207.76,3.11,33.29,-7.40,21.11,5
0.61,0.45,-0.66,225.52,-82.03,24.41,32.92,-11.07,14.58,5
0.85,0.71,-0.58,134.58,-58.65,-23.56,32.28,-11.49,-7.96,5
0.97,0.51,0.39,232.36,-49.80,-35.46,32.54,0.05,-20.74,5
0.38,0.46,0.05,280.33,-121.58,38.33,26.14,9.47,-28.96,5
0.41,-0.00,0.01,136.35,-77.64,-13.12,22.40,20.01,-31.81,5
0.09,-0.09,2.62,128.72,-115.48,111.51,16.47,38.04,-29.88,5
-0.04,0.98,1.12,252.99,387.51,327.58,28.67,36.21,-20.36,5
-1.38,1.90,-0.20,150.27,742.98,-5.98,39.49,26.55,18.57,5
-1.51,2.35,-2.77,1180.85,586.98,-407.35,1.61,-22.89,21.57,5
0.27,0.42,-2.51,-527.59,603.21,-370.67,15.66,-22.89,-8.00,5
-0.56,-1.60,-1.08,-610.90,-296.39,-493.47,38.62,7.52,18.91,5
-3.97,2.70,1.20,-560.42,128.23,1044.80,32.95,-12.08,-0.18,5
-2.06,0.76,0.78,282.65,697.75,1063.90,4.31,0.73,-33.94,5
-4.00,0.25,0.37,96.19,70.98,932.31,-2.08,4.09,-36.27,5
-3.23,2.99,1.15,-188.72,477.42,-22.83,-7.50,11.62,-34.95,5
-1.16,3.04,0.74,-221.80,-108.58,28.63,0.56,22.81,-36.95,5
-2.58,-0.19,0.44,57.68,-299.68,-927.80,-12.05,37.23,-33.84,5
-1.19,0.65,0.96,-79.59,-297.24,-100.10,-38.92,12.95,-22.77,5
-1.16,0.15,0.44,-53.83,75.62,246.70,-45.70,9.47,-6.70,5
-1.23,0.44,0.09,-184.33,238.95,-127.87,-41.16,18.35,-19.42,5
-1.04,-0.12,0.67,34.00,102.48,103.58,-32.35,4.39,-24.67,5
-0.52,0.32,0.53,-214.90,167.18,-90.45,-22.46,11.78,-33.70,5
-0.54,0.43,0.59,183.23,71.66,65.55,-2.50,16.22,-39.48,5
-0.34,-0.10,0.85,78.67,-49.01,134.83,-0.77,24.32,-38.13,5
-0.37,-0.34,0.93,-54.02,-138.31,97.96,-10.50,26.59,-36.84,5
-0.59,-0.53,0.56,-15.50,-50.60,25.94,-12.11,27.17,-36.51,5
-1.00,-0.22,0.62,-16.30,30.58,-38.45,-15.73,24.84,-36.08,5
-0.74,0.04,0.82,-0.61,-0.55,4.46,-8.96,22.71,-37.54,5
-0.70,0.17,0.61,-51.45,-17.21,-42.60,-11.88,17.03,-36.08,5
-0.53,-0.04,1.00,-139.04,207.82,51.76,1.34,11.36,-36.80,5
-0.19,0.05,1.06,20.57,211.49,38.21,12.35,11.10,-35.07,5
0.05,0.19,0.91,-154.36,304.20,288.88,26.09,-0.83,-23.23,5
0.42,0.39,0.90,8.06,84.72,58.72,26.07,-12.10,-14.45,5
0.17,0.83,0.05,196.96,242.31,-143.01,31.69,-10.62,-6.56,5
0.78,0.23,0.35,50.35,406.62,108.40,34.33,-10.74,1.89,5
0.87,0.74,-0.15,164.73,207.52,119.57,26.21,-14.72,20.31,5
0.45,0.36,-0.21,-42.72,54.81,-46.20,20.43,-19.13,18.88,5
0.80,0.58,-0.18,-205.93,-40.95,-12.45,23.75,-12.92,27.03,5
0.69,0.21,-0.74,-157.29,65.67,2.32,22.63,-6.46,34.14,5
0.78,0.24,-0.72,158.94,223.82,-37.66,14.55,-2.01,41.35,5
0.26,0.72,-0.54,235.35,115.78,-27.47,2.29,-15.37,32.87,5
0.58,0.29,-0.73,-68.42,-2.44,-103.03,8.22,-17.46,30.75,5
0.75,0.43,-0.73,28.81,-7.51,40.95,11.76,-13.60,33.11,5
0.84,0.43,-0.58,62.38,50.78,-137.02,11.65,-14.32,32.12,5
0.47,0.04,-0.78,73.73,89.84,-57.62,13.57,-15.05,30.52,5
0.40,0.63,-0.70,35.03,204.71,14.34,5.93,-13.77,33.73,5
0.19,0.40,-0.66,104.31,-5.68,1.65,5.32,-20.57,25.43,5
0.44,0.53,-0.58,104.00,95.83,-52.25,2.99,-23.90,17.29,5
0.08,0.77,-0.52,120.18,45.65,-21.30,10.02,-24.57,-2.56,5
-0.16,1.16,0.07,135.25,74.46,0.24,7.59,-23.58,-10.24,5
0.05,0.76,0.14,141.17,94.60,69.46,6.13,-18.04,-20.29,5
-0.11,1.06,0.54,164.98,26.61,132.32,3.21,-9.83,-29.86,5
-0.23,1.52,0.89,159.00,35.95,97.53,-0.17,4.41,-37.68,5
-0.32,0.59,1.23,94.79,112.92,14.83,4.03,11.71,-37.92,5
-0.47,-0.63,1.25,285.34,353.88,-28.99,13.82,23.45,-36.29,5
0.45,-0.85,0.13,70.25,230.96,-24.35,30.42,40.91,-14.47,5
1.63,-0.25,1.01,293.15,-73.36,-81.12,34.51,33.53,-15.76,5
0.38,-0.25,0.51,120.79,-32.10,-253.30,20.20,51.76,-11.05,5
-0.07,-1.29,0.97,-38.45,5.31,-57.07,11.05,57.36,-6.80,5
0.59,0.09,0.54,-594.97,128.85,47.79,13.82,42.90,-26.68,5
0.90,0.65,0.25,-123.84,-21.91,-189.33,22.33,11.94,-31.29,5
0.43,0.75,0.93,88.68,-100.89,-1.04,22.66,8.72,-30.87,5
2.98,1.55,0.00,-92.10,88.50,-39.37,26.97,8.85,-26.62,5
0.99,-0.11,0.45,-111.21,-43.52,-214.90,30.70,8.01,-22.64,5
0.69,-0.14,0.17,-93.51,-227.11,-4.76,24.58,7.10,-27.50,5
0.85,0.32,0.64,82.52,-21.48,87.77,15.17,5.94,-31.81,5
0.10,0.21,0.68,109.92,-145.20,87.59,4.69,13.68,-36.47,5
1.10,-0.10,0.96,-34.42,-75.32,-57.62,0.76,18.24,-36.66,5
0.34,-0.10,1.36,-92.41,-57.86,-190.73,-4.14,12.23,-36.72,5
0.50,-0.05,0.57,73.91,301.51,-613.59,8.84,0.62,-33.14,5
0.87,-0.78,0.28,78.25,38.88,-161.13,28.50,20.67,-28.05,5
0.61,-1.03,0.11,114.26,120.85,-219.67,29.64,27.65,-24.18,5
0.51,-1.35,-0.27,-13.00,-333.31,289.00,28.53,36.08,-19.54,5
-0.18,-0.50,0.32,126.95,-766.17,653.69,-2.81,26.94,-36.16,5
-0.01,-0.12,0.37,-185.61,5.74,210.08,-12.54,37.35,-31.15,5
0.32,0.33,0.91,-112.12,-102.78,165.71,-11.05,27.32,-34.36,5
0.60,0.41,0.71,-143.19,-371.15,-283.87,-21.37,21.85,-32.15,5
0.36,1.36,0.83,139.22,67.93,-551.57,-20.81,-10.16,-19.20,5
0.43,0.64,0.92,76.78,48.52,-451.23,16.03,-8.39,-26.42,5
0.66,-0.27,0.61,129.39,-41.93,-147.28,23.57,2.27,-28.96,5
0.56,-0.52,0.50,46.69,21.85,84.59,22.08,21.06,-31.34,5
0.71,-0.51,0.09,114.44,37.60,-16.91,29.50,18.73,-26.03,5
1.02,-0.31,0.13,135.50,35.16,-98.88,30.27,29.49,-22.47,5
0.61,-0.31,0.04,104.55,52.43,-166.20,29.24,36.28,-18.60,5
0.60,-1.31,-0.12,-268.55,73.73,-65.00,23.24,45.86,-17.35,5
0.43,-0.63,0.40,-65.73,-4.88,14.47,23.08,35.94,-25.51,5
0.42,-0.83,0.76,-208.44,-13.67,84.17,25.70,23.39,-30.74,5
0.54,-0.36,0.56,-417.24,96.68,-18.31,25.44,13.40,-29.36,5
0.47,0.21,0.40,35.46,-72.33,-111.57,30.59,-6.77,-16.70,5
0.83,-0.07,0.86,-127.32,-13.55,-53.16,31.76,-6.85,-13.67,5
0.67,0.22,0.52,-365.97,-82.64,-180.11,34.84,-8.94,-6.38,5
0.80,0.57,-0.06,-287.90,64.33,-148.56,40.38,-2.64,4.43,5
0.94,0.61,0.43,-115.84,-92.35,-93.14,42.44,2.05,5.66,5
0.88,0.61,0.54,-191.22,-36.80,2.26,43.04,4.88,1.70,5
0.55,1.07,-0.04,-45.35,-28.26,87.52,40.33,-0.60,3.19,5
0.49,0.62,0.20,14.53,10.44,57.37,37.16,-6.16,4.77,5
0.35,0.44,0.56,6.84,-27.16,-90.21,38.46,-5.40,1.01,5
0.89,1.15,0.04,39.86,-70.74,-96.25,41.39,2.65,0.63,5
1.02,0.48,0.61,51.51,-133.42,-336.30,42.07,18.19,-7.15,5
0.04,-0.37,1.05,30.94,-106.75,-202.94,27.03,41.44,-17.57,5
1.30,-0.31,0.72,-7.45,-95.46,-152.77,22.00,45.79,-19.70,5
-0.94,-0.73,1.09,-157.35,-137.76,286.25,12.88,45.97,-24.83,5
0.59,0.94,0.78,-346.07,62.13,249.15,17.25,13.45,-34.22,5
-0.33,0.48,0.61,-1.83,-91.86,8.24,13.71,5.62,-35.06,5
0.02,0.31,0.90,44.74,-75.74,-67.08,10.49,6.35,-36.18,5
0.08,0.11,0.30,-167.60,26.49,-74.04,15.56,1.66,-31.29,5
0.08,1.42,-0.17,28.56,324.28,268.80,18.29,-7.21,-25.79,5
0.39,0.46,0.49,-175.05,105.77,-245.24,26.62,-5.90,-20.21,5
0.77,0.32,0.24,-163.64,-2.14,-293.58,40.69,0.82,-4.47,5
1.58,-0.03,-1.07,-354.13,-157.59,-298.40,43.99,14.20,-3.72,5
0.89,-0.57,0.29,-79.16,-107.67,-124.51,36.57,24.61,-18.44,5
1.12,-0.38,-0.58,-4.15,-266.60,94.06,22.41,21.44,-32.29,5
0.79,-0.08,0.90,120.73,-246.70,71.47,5.48,24.29,-38.10,5
0.33,-0.23,0.55,56.40,-256.47,117.43,-2.66,30.31,-38.31,5
0.18,-0.37,0.90,-22.03,-50.54,33.94,-15.23,38.76,-32.50,5
-0.25,-0.34,0.90,-55.97,50.84,-10.50,-16.58,37.63,-32.80,5
0.20,-0.20,0.85,-90.45,25.94,-28.14,-13.87,31.02,-35.84,5
-0.02,-0.13,0.94,-75.62,-281.62,-30.21,-14.61,27.70,-35.90,5
-0.29,0.21,0.43,-115.54,-471.86,-31.43,-35.86,20.42,-21.42,5
-0.71,0.29,0.37,-121.64,-312.81,41.99,-44.56,19.35,11.30,5
-1.00,0.23,-0.56,-130.55,-207.89,80.14,-33.20,30.27,32.75,5
-1.22,0.19,0.43,-146.73,386.47,108.58,-31.88,33.53,32.35,5
-0.68,-0.25,-0.02,-102.60,86.43,21.85,-37.28,42.20,15.11,5
-1.11,-0.23,0.76,-159.67,301.88,-100.77,-36.60,45.59,3.80,5
-0.86,-0.07,0.65,51.21,130.74,-69.46,-36.29,41.36,-13.67,5
-0.58,0.09,0.80,-84.66,92.71,-31.31,-33.63,38.24,-20.10,5
-0.63,-0.03,1.15,-377.87,144.10,-245.73,-26.09,21.89,-31.27,5
0.26,1.03,0.07,-320.92,-70.68,-329.16,-9.01,-15.88,-21.80,5
1.46,0.69,-0.46,-70.50,232.36,-164.98,11.04,-23.97,-5.47,5
0.52,0.75,0.09,99.67,0.12,9.83,15.84,-21.09,-7.62,5
1.01,0.49,-0.18,56.40,-11.41,34.24,17.57,-19.04,-10.77,5
1.02,0.30,0.21,412.11,-50.72,300.84,11.16,-14.67,-22.14,5
0.13,-0.37,1.30,615.84,265.01,580.14,7.70,29.33,-36.08,5
-0.07,0.08,1.07,47.12,-24.54,235.72,26.77,30.46,-25.09,5
0.71,0.39,0.33,193.54,110.96,212.10,32.07,26.89,-22.63,5
0.44,-0.30,0.90,134.22,-250.98,54.75,36.49,25.04,-20.70,5
-0.02,-0.28,0.99,131.04,-194.21,-13.79,25.32,30.44,-30.85,5
-1.09,-1.28,1.46,63.66,59.20,-237.12,18.85,36.78,-30.02,5
-0.07,-0.50,0.88,221.31,139.28,-92.35,18.84,44.19,-24.35,5
-0.11,-0.61,0.68,-13.12,303.89,191.10,18.49,55.93,-5.25,5
0.21,-0.90,0.17,75.87,211.67,-194.03,17.36,56.38,12.65,5
0.60,-0.63,0.65,-96.92,143.92,12.57,8.68,62.01,14.58,5
0.89,-0.64,0.14,255.07,-339.29,392.58,13.15,56.09,18.44,5
0.46,-0.72,-0.64,115.30,-22.95,-52.00,41.10,30.81,14.53,5
0.41,-0.52,-1.74,329.83,-50.78,154.60,36.24,25.45,27.49,5
1.08,-0.04,-0.50,-108.09,-139.28,83.25,40.41,5.33,23.19,5
1.37,0.14,0.02,-511.05,70.74,114.50,41.49,6.77,20.51,5
0.90,-0.18,-0.11,-95.52,-31.07,-48.65,36.01,13.11,28.80,5
0.53,0.56,-0.69,-61.83,-34.18,-66.89,35.79,26.92,28.44,5
0.75,-0.42,-0.07,-167.48,-12.39,-25.21,33.54,36.39,24.98,5
0.83,0.27,0.21,-279.91,-19.84,184.69,36.57,36.58,18.41,5
0.86,0.18,0.21,-4.64,-45.65,24.11,41.88,29.25,11.12,5
0.98,0.10,0.22,35.64,42.54,-42.85,42.43,26.76,11.25,5
0.81,0.25,0.33,-97.11,27.83,-43.64,41.52,30.57,11.11,5
1.23,0.23,-0.01,-187.62,138.55,152.22,39.89,34.34,14.79,5
0.94,0.56,-0.32,-129.39,-41.08,156.92,40.88,30.04,15.42,5
1.03,0.53,-0.24,-115.42,17.70,185.30,44.07,14.32,12.76,5
0.54,0.55,-0.56,-86.73,-49.38,25.33,42.90,4.92,14.70,5
0.60,-0.06,-0.53,106.63,-45.84,-615.11,45.23,14.31,12.39,5
0.46,-1.32,-0.19,54.44,-293.15,-416.44,14.43,59.64,12.73,5
1.06,-0.81,0.25,-312.62,4.88,277.89,18.58,57.59,-6.74,5
0.87,-0.05,0.05,-86.85,-19.10,-53.71,27.16,45.69,-17.07,5
0.80,-0.60,0.52,-205.20,-104.31,-114.38,24.34,45.62,-20.21,5
0.73,-0.42,0.68,-130.25,96.01,-113.89,16.60,43.37,-26.21,5
0.65,-1.01,0.43,-276.18,52.31,-78.12,18.05,35.45,-31.69,5
0.89,-0.34,0.44,-28.26,43.58,-15.26,20.06,22.58,-33.34,5
0.56,-0.24,0.57,-134.22,117.98,-51.82,22.67,19.68,-32.60,5
0.93,-0.12,0.23,-96.07,20.08,-135.74,31.56,13.67,-27.67,5
1.06,-0.41,0.60,-88.81,54.81,-123.29,33.91,17.64,-23.90,5
0.37,-0.57,-0.10,45.90,22.09,-88.20,35.10,18.57,-22.05,5
0.41,-0.58,0.41,45.90,46.81,-155.27,33.31,22.18,-23.23,5
-0.04,-1.15,0.41,34.42,-64.09,-193.79,28.99,40.31,-17.82,5
-0.05,-0.98,0.40,-51.82,66.22,146.00,24.41,43.62,-19.43,5
0.29,-0.89,0.29,-70.56,92.29,199.58,37.92,27.14,-17.55,5
0.91,-0.30,0.34,-65.92,114.32,223.69,41.42,20.30,-10.74,5
0.60,0.26,0.16,-74.58,245.67,278.56,40.87,-1.57,0.05,5
0.99,0.27,-0.26,144.65,27.71,217.65,25.26,-19.04,12.11,5
0.38,1.30,-0.67,77.94,72.08,204.47,1.94,-26.04,8.96,5
0.36,1.03,-0.17,206.05,176.45,252.69,-8.70,-24.17,2.15,5
-0.41,0.73,0.54,164.67,187.13,201.48,-22.40,-6.96,-22.85,5
-0.10,0.25,0.82,68.97,116.58,189.15,-18.24,10.79,-34.07,5
-0.43,0.74,0.60,-92.29,7.20,33.75,-17.24,11.77,-35.66,5
-0.11,0.68,0.59,-174.13,-93.75,-117.37,-15.86,9.85,-34.03,5
-0.08,1.16,0.07,-253.78,-46.26,-258.67,-19.35,-6.40,-24.65,5
0.53,0.31,-0.17,-426.82,-244.20,-322.39,1.16,-25.45,0.13,5
0.71,0.67,-0.41,-179.75,-214.90,-70.56,21.45,-18.95,18.60,5
0.69,0.28,-0.25,-101.01,-28.38,-5.62,21.36,-16.78,20.58,5
1.13,0.35,-0.41,36.13,105.10,39.49,23.68,-14.53,24.78,5
0.45,0.51,-0.50,26.61,336.06,123.35,9.30,-18.29,26.48,5
-0.32,0.77,-0.92,10.31,495.30,79.10,-15.38,-17.55,22.79,5
-0.36,0.71,-0.73,158.08,191.83,2.20,-21.23,-17.96,-0.02,5
-0.32,1.05,-0.35,155.52,63.90,-14.22,-17.22,-14.92,-15.19,5
-0.36,0.67,0.38,289.25,-25.15,30.76,-14.34,-1.05,-30.96,5
-0.58,-0.09,1.07,201.42,235.72,148.99,-14.07,22.83,-36.05,5
-0.53,-0.04,0.80,-80.20,15.81,-3.97,-6.82,33.56,-34.88,5
-0.31,0.47,0.87,20.51,72.14,40.28,-6.42,32.97,-35.03,5
-0.19,-0.10,1.04,-60.36,5.00,-39.86,-2.81,32.30,-37.00,5
-0.04,0.47,0.86,-223.51,-16.30,-163.94,-0.07,24.17,-37.41,5
-0.03,0.88,0.59,-12.15,-39.49,-206.60,6.82,7.64,-38.05,5
0.55,0.45,0.20,-474.73,-106.75,-167.54,11.99,2.87,-34.01,5
0.18,0.73,-0.06,174.74,-34.30,56.70,13.07,-12.82,-23.99,5
0.21,1.07,-0.14,33.20,-145.45,-135.93,13.48,4.20,-33.64,5
0.32,-0.21,0.81,-129.70,-27.10,-383.12,11.35,6.67,-36.00,5
0.82,-0.35,0.51,-6.04,156.37,-186.34,14.50,8.22,-36.00,5
1.50,1.43,1.14,-22.16,93.57,-149.41,23.30,10.86,-31.67,5
0.81,-0.22,0.56,165.16,11.11,-11.29,28.00,21.58,-28.44,5
0.96,-0.26,0.33,-45.96,-82.40,-59.02,22.27,31.10,-29.53,5
0.91,-0.33,0.57,38.94,16.54,-88.38,18.46,30.73,-31.98,5
0.67,-0.64,0.35,117.13,-45.35,-10.68,16.46,38.07,-29.44,5
0.56,-0.52,0.24,65.80,-242.92,-39.25,5.71,45.75,-28.08,5
0.34,-0.75,0.69,-18.98,-289.61,-25.15,-13.90,47.57,-25.04,5
-0.16,-0.62,0.58,-15.99,-296.20,-76.66,-21.51,47.28,-20.56,5
-0.52,-0.30,0.30,-47.42,-546.63,-18.55,-37.50,42.61,-2.34,5
-0.83,-0.63,-0.08,61.46,-273.50,-11.78,-30.33,37.61,31.04,5
-0.67,-0.27,-0.25,22.46,261.17,45.29,-30.60,32.81,33.11,5
-0.85,-0.37,-0.15,96.07,-32.96,52.55,-35.35,33.83,26.50,5
-0.66,-0.65,-0.62,178.59,-44.13,12.88,-30.69,32.18,31.45,5
-0.84,-0.57,-0.61,100.83,-83.68,12.39,-24.45,21.04,39.83,5
-0.90,-0.86,-0.42,65.43,-56.95,35.77,-22.63,19.76,40.76,5
-0.55,-0.33,-0.77,112.06,-137.27,32.90,-13.90,11.78,44.26,5
-0.15,-0.16,-0.68,303.41,-28.81,-69.46,-8.65,2.45,43.60,5
-0.22,0.02,-1.00,38.21,94.36,105.83,-9.67,-11.85,35.55,5
-0.54,0.21,-0.80,-33.39,-240.78,108.95,-13.57,-8.72,35.90,5
-0.09,0.08,-0.78,-136.78,1.59,195.62,-12.43,2.69,42.26,5
-0.11,-0.73,-0.62,-454.83,62.07,235.72,-15.26,16.56,42.86,5
-0.71,-1.74,-0.44,-588.01,93.93,328.55,-11.16,54.75,27.12,5
0.10,-0.37,-0.20,-448.49,299.56,586.61,25.72,51.06,-3.88,5
0.24,-0.08,-0.00,-106.38,-141.42,367.31,39.65,16.46,-9.13,5
-0.63,0.04,-0.19,-135.25,124.57,461.36,30.40,-4.96,-9.11,5
0.15,1.35,1.07,773.80,-102.78,-47.06,23.94,-15.09,-4.59,5
0.44,0.14,0.30,-534.42,-213.32,125.31,20.15,-15.16,7.76,5
0.00,1.04,-0.20,284.67,-56.09,75.38,22.89,-14.54,3.81,5
0.11,0.84,0.38,-49.13,53.83,-6.47,22.44,-12.92,-7.80,5
-0.40,1.69,0.18,104.55,-108.70,169.07,23.25,-14.00,-1.75,5
0.16,0.86,0.16,94.79,-82.28,246.70,14.25,-16.82,-6.62,5
-0.41,0.69,0.33,-3.05,-16.42,44.68,5.36,-18.25,-9.44,5
-1.73,1.50,0.91,-44.74,17.21,-276.61,-2.23,-17.53,-13.28,5
-0.29,2.55,1.15,-70.37,49.87,182.92,11.10,-18.92,-9.34,5
-0.38,1.12,-0.18,14.47,9.40,-138.06,7.06,-18.88,-8.22,5
-0.79,1.64,0.07,105.10,36.32,21.24,13.96,-8.64,-13.42,5
-1.57,0.53,0.82,178.10,-113.28,201.17,6.31,0.89,-27.34,5
0.33,-0.17,-0.71,272.40,163.39,4.03,7.06,16.80,-32.87,5
0.37,-0.04,1.32,14.16,165.04,161.38,17.03,24.46,-28.27,5
-0.69,0.52,2.25,185.49,-77.27,37.66,18.86,30.63,-26.06,5
0.33,0.12,0.70,131.23,-148.38,226.14,14.66,30.25,-32.17,5
0.92,-2.51,-1.60,-257.02,-103.45,34.24,17.00,35.31,-30.90,5
0.91,-0.07,1.88,104.98,456.18,-27.22,30.40,31.34,-21.85,5
1.35,-0.56,1.91,-90.21,73.91,-97.47,35.51,37.96,-4.05,5
0.28,-0.31,0.43,-137.88,-294.62,57.50,30.53,46.98,-4.65,5
-0.40,0.10,-0.39,-283.63,-83.80,65.19,17.96,37.17,-28.45,5
0.42,-0.02,0.74,23.19,-25.57,108.76,19.49,15.61,-32.98,5
-0.14,-0.52,-0.49,-216.61,407.59,145.69,33.04,9.16,-22.72,5
0.38,0.61,0.01,70.98,466.25,67.20,42.53,7.35,-5.02,5
0.64,0.49,0.32,31.62,202.03,173.83,36.67,-1.59,24.41,5
0.64,0.85,-0.54,242.80,72.27,13.55,14.66,-15.00,30.73,5
0.98,0.09,-0.37,-207.82,-336.61,-149.96,21.58,-11.71,31.12,5
1.14,0.56,-0.78,-244.87,93.14,11.84,37.55,3.03,23.35,5
0.62,-0.34,-0.54,8.36,-82.46,-151.12,36.29,16.64,28.78,5
0.54,-1.02,-0.76,196.47,-565.92,28.93,42.42,22.13,12.10,5
0.78,-0.32,0.19,220.89,-405.58,164.25,34.58,15.91,-23.57,5
-3.34,-3.90,4.00,255.49,-415.41,323.67,19.06,23.63,-34.75,5
0.28,-0.57,0.80,30.94,-48.34,102.17,5.04,21.73,-38.62,5
0.07,-0.00,1.11,34.73,-52.31,275.39,3.19,21.52,-39.22,5
0.14,-1.18,0.45,108.28,-79.59,339.60,0.17,33.42,-37.23,5
0.85,-0.46,0.44,-42.42,69.21,221.68,3.72,34.38,-36.01,5
1.56,-0.46,0.67,83.07,168.52,214.84,19.46,27.64,-31.51,5
0.74,0.34,0.51,-25.27,125.55,61.22,31.41,16.52,-26.60,5
1.32,-0.03,0.37,84.66,56.15,135.62,39.53,13.48,-15.39,5
0.55,0.81,-0.31,-276.55,319.09,-51.03,40.16,7.53,-12.52,5
1.15,-0.54,-1.28,-248.29,39.43,-221.01,43.92,15.69,12.07,5
1.24,0.20,-0.71,211.98,-404.72,18.55,43.16,20.95,-2.14,5
0.17,-1.55,0.11,632.20,-339.84,-195.62,28.26,44.10,-13.43,5
0.94,-0.22,-0.19,-18.80,-60.24,-9.22,20.21,54.32,-5.47,5
0.85,-1.76,0.93,-33.33,-129.09,-79.35,17.70,56.08,-7.78,5
0.58,-0.42,0.28,-26.31,-190.98,-180.36,2.77,58.85,-13.26,5
-0.02,-0.53,0.53,-154.91,-117.80,-126.53,-17.81,57.39,-15.04,5
-0.30,-0.19,1.05,-191.89,121.22,-209.05,-29.36,40.95,-22.74,5
-0.46,0.22,0.59,-412.35,575.32,-150.27,-19.53,29.52,-35.11,5
0.85,0.10,0.23,48.95,278.32,-103.03,28.28,8.63,-27.59,5
1.04,-0.17,-0.52,-52.31,330.14,-137.45,44.34,19.42,-2.82,5
0.61,-0.65,-0.77,-104.68,212.10,-101.62,39.70,33.47,15.27,5
0.24,-0.70,-0.70,-186.71,-156.56,101.07,38.40,35.23,14.33,5
0.78,-0.51,-0.30,-14.28,-180.66,178.22,43.04,26.18,4.35,5
1.09,-0.20,-0.01,-198.85,-178.47,130.37,42.18,9.83,-10.07,5
1.01,-0.29,0.18,33.63,-92.29,88.62,34.78,-1.48,-16.71,5
0.66,0.27,0.80,-108.15,-13.06,68.12,28.93,-4.85,-21.64,5
0.75,0.64,-0.03,-45.29,38.15,-46.88,25.88,-14.18,-14.98,5
0.62,0.52,-0.45,-342.83,-212.52,-85.75,28.80,-16.20,-2.39,5
0.89,0.14,0.24,75.62,-9.28,5.80,34.29,-11.16,-2.82,5
1.07,0.64,0.69,-88.07,118.59,-77.70,34.57,-8.13,-9.47,5
1.28,0.03,0.77,-377.81,-38.88,-79.65,39.66,-2.56,-1.92,5
0.86,0.00,0.40,-23.56,78.37,-10.68,41.13,0.24,9.97,5
0.94,-0.13,0.02,-420.41,-177.43,-126.53,43.84,11.93,7.42,5
0.49,0.35,0.37,18.55,-358.76,123.17,43.74,17.30,-3.99,5
0.44,0.69,0.56,-225.10,-17.64,-88.93,35.17,11.56,-22.95,5
0.48,0.33,0.45,-249.82,40.95,88.68,36.88,1.29,-17.16,5
0.37,0.76,0.28,-4.09,-32.35,-188.90,38.99,-5.02,-6.54,5
0.67,0.61,0.36,59.14,-52.55,-140.26,40.56,3.39,-11.87,5
0.56,0.18,0.63,43.58,-33.08,-81.48,40.67,15.48,-15.32,5
0.94,0.51,0.33,-11.84,-13.55,-20.69,39.97,24.46,-16.08,5
0.64,-0.09,0.72,-57.37,-43.21,-223.75,30.27,39.51,-19.27,5
0.98,0.04,0.17,3.91,20.87,-139.59,22.49,47.22,-19.78,5
1.28,-0.23,0.40,22.28,23.86,-43.21,21.84,50.39,-17.79,5
0.65,-0.36,0.65,15.20,-38.94,-121.52,16.75,52.60,-17.55,5
0.38,-0.86,0.63,-18.37,11.35,-61.16,6.48,57.71,-17.54,5
0.39,-0.85,0.41,39.79,-74.46,-58.59,-2.72,59.69,-16.16,5
0.65,-1.26,0.24,-14.95,0.43,41.38,-2.56,59.96,-16.00,5
0.17,-0.56,0.75,-29.72,-56.46,197.45,0.32,58.00,-16.86,5
1.02,-0.29,0.48,-125.49,141.78,391.66,22.42,44.96,-21.90,5
0.73,0.10,0.37,-9.46,180.24,190.92,41.47,24.76,-12.92,5
0.84,0.65,0.29,85.45,34.30,84.41,44.34,18.05,-4.33,5
1.09,0.39,0.34,-114.14,-138.24,-152.10,44.57,17.31,-1.50,5
0.67,0.22,0.49,-105.77,-288.82,-383.91,30.22,33.22,-23.01,5
0.29,-0.42,1.11,-76.48,144.29,-110.17,12.45,39.17,-30.55,5
0.72,-0.28,0.70,-88.93,-107.91,-122.13,12.37,38.77,-31.54,5
0.51,-0.33,0.96,-146.06,-52.55,-36.32,0.07,33.63,-35.85,5
0.23,0.32,0.97,-69.82,-111.76,1.40,-6.32,21.80,-38.68,5
0.02,-0.12,1.08,48.40,-16.72,178.53,-6.96,20.40,-39.61,5
0.09,0.26,0.89,69.03,-15.50,118.23,-8.33,23.17,-37.63,5
0.16,0.09,0.97,-49.93,-20.57,53.22,-8.30,29.66,-36.36,5
0.46,0.30,1.00,-38.57,25.76,-246.40,-10.02,24.62,-37.76,5
0.32,0.05,1.47,107.97,103.09,-520.63,-3.06,9.24,-39.03,5
0.46,-0.11,0.76,-39.98,217.10,-246.52,17.96,12.87,-36.79,5
1.11,-0.57,0.34,-72.14,17.21,-135.93,27.82,16.41,-29.52,5
1.00,-0.25,0.80,-11.54,-90.64,123.05,27.64,14.72,-30.37,5
0.65,-0.11,0.55,-303.10,-3.85,346.56,14.03,-2.22,-30.30,5
0.45,0.68,0.35,-88.13,98.02,153.75,8.57,-18.57,-17.44,5
0.70,0.80,0.32,12.39,53.83,217.96,2.49,-20.24,-14.55,5
0.12,0.98,0.17,-53.16,55.54,281.62,-13.68,-17.52,-13.89,5
-0.16,0.26,0.25,38.27,73.85,322.39,-28.42,-2.27,-20.79,5
-0.73,0.06,0.52,-9.89,75.93,228.70,-36.55,15.84,-20.69,5
-0.75,0.20,0.49,-112.61,13.31,189.27,-35.78,22.81,-23.11,5
-1.16,0.42,-0.32,-135.74,-3.97,117.25,-35.55,27.91,-22.36,5
-0.91,0.35,0.22,-104.19,38.45,8.42,-34.23,26.18,-23.66,5
-0.52,0.10,0.20,-66.53,218.44,132.39,-17.27,21.41,-35.66,5
-0.77,0.21,0.92,-75.44,54.20,-51.27,-14.20,20.35,-37.41,5
-0.90,0.39,0.66,-85.45,-250.00,-276.18,-14.83,12.15,-36.91,5
-0.41,0.97,0.42,6.59,-104.06,-215.21,-14.90,-4.30,-30.83,5
-0.06,1.24,-0.00,-86.12,-208.74,-234.01,-14.58,-11.21,-24.23,5
-0.39,0.42,0.02,-90.88,-371.64,-346.01,-12.73,-15.41,-19.84,5
1.13,0.22,0.02,255.37,-232.24,-687.87,10.66,-23.06,-9.86,5
0.76,0.13,0.87,29.24,-174.07,-112.49,25.31,9.22,-31.45,5
0.74,-0.39,0.88,-15.32,9.95,-34.48,12.82,15.01,-36.67,5
0.70,-0.12,0.52,84.05,16.85,-92.90,14.20,13.34,-37.30,5
0.31,-0.39,0.41,13.79,38.02,68.30,15.95,20.37,-36.72,5
0.31,-1.36,0.14,-30.52,265.81,-224.73,26.25,24.62,-30.32,5
0.69,-0.75,0.12,-69.52,256.53,-218.51,34.33,40.63,-12.28,5
0.32,-0.96,0.27,-21.91,178.59,-299.13,28.44,50.13,-5.71,5
-0.68,-0.96,0.19,-120.54,53.53,-21.73,14.88,58.61,-2.40,5
-0.08,-0.71,0.44,-43.64,4.03,-88.56,11.82,56.99,-12.72,5
0.02,-0.34,0.71,-66.22,-73.49,-159.73,-0.67,56.32,-17.92,5
-0.66,-0.51,0.61,-23.13,-46.26,-92.47,-11.06,54.48,-19.32,5
-0.78,-0.18,0.65,-142.64,29.17,-72.20,-15.19,52.56,-18.96,5
-0.50,-0.15,0.85,-242.07,217.10,-83.44,-13.12,40.26,-30.09,5
-0.24,0.77,0.54,-240.17,189.76,-86.00,3.59,14.43,-38.11,5
0.02,0.72,0.45,-43.76,121.09,-30.33,14.55,7.06,-34.24,5
0.17,0.40,1.03,43.70,256.16,-122.62,18.30,6.57,-32.96,5
0.85,0.42,0.14,-4.03,149.23,-287.35,38.32,19.69,-15.67,5
1.12,-0.29,0.20,-44.80,129.09,-182.98,37.71,36.15,-5.35,5
0.88,-0.29,0.27,-86.79,-78.06,-171.08,26.99,47.42,-11.96,5
0.63,-0.51,0.66,-71.59,-49.38,-102.17,20.80,49.74,-15.91,5
0.66,-0.49,0.50,-138.61,-16.24,-37.29,12.56,47.73,-24.45,5
0.81,-0.49,0.88,-89.17,7.08,14.16,11.21,39.81,-31.58,5
0.66,-0.22,0.28,261.72,88.20,370.97,24.16,36.05,-24.40,5
1.29,0.37,0.81,210.39,-97.78,387.33,31.58,32.07,-21.52,5
0.39,0.53,0.65,-40.22,49.01,201.05,34.94,15.03,-21.77,5
0.57,0.33,0.70,-22.16,96.50,-1.04,37.60,7.03,-17.37,5
0.61,0.59,0.49,-19.53,18.80,25.27,38.90,4.03,-13.40,5
0.45,0.47,0.52,-52.37,19.41,-108.83,38.72,4.72,-13.93,5
0.74,0.23,0.52,10.74,-6.90,-156.13,41.03,14.29,-10.79,5
1.37,1.01,0.45,-27.04,-113.34,-40.47,38.31,21.45,-13.92,5
0.67,0.29,0.75,-10.38,-69.70,-6.71,32.54,18.84,-22.99,5
0.60,0.55,0.64,-3.30,42.72,20.32,32.82,19.03,-23.36,5
0.55,0.48,0.66,57.92,-29.17,-11.47,32.98,18.74,-21.58,5
0.91,0.74,0.59,33.20,84.59,85.51,35.29,19.35,-19.06,5
0.42,0.39,0.69,38.76,92.53,155.27,38.23,11.87,-14.33,5
0.29,0.73,0.64,-166.32,3.85,198.12,38.49,2.48,-10.34,5
0.26,0.87,0.06,-0.37,-135.13,-396.06,37.71,-1.61,-9.31,5
-0.43,0.15,-0.09,19.53,-22.89,-408.57,36.54,31.80,-13.65,5
0.57,-0.33,0.31,-78.00,-27.34,-255.13,16.22,50.66,-17.18,5
0.62,-0.52,0.65,-112.24,-14.47,-195.43,7.71,51.20,-22.23,5
0.67,-0.77,0.61,-20.75,60.18,-92.65,-3.72,46.88,-28.98,5
0.41,-0.59,0.77,19.29,191.96,47.36,1.05,45.92,-29.33,5
0.88,-0.51,0.33,-190.49,164.98,-66.41,20.85,35.95,-29.93,5
0.75,-0.41,0.54,-10.07,116.21,-51.88,23.99,31.65,-29.70,5
1.29,-0.70,0.11,-29.24,257.93,-141.54,32.39,33.87,-19.51,5
0.61,-0.78,0.10,-25.88,188.90,-170.41,33.25,42.27,-9.34,5
0.25,-0.97,-0.37,14.71,-58.11,-159.79,23.89,54.05,-1.14,5
-0.05,-0.77,-0.04,-364.50,-303.41,-34.55,16.19,55.97,-9.34,5
0.25,-0.75,0.74,-80.99,-92.90,43.27,2.67,42.19,-32.10,5
0.16,-0.80,0.43,-142.27,-21.42,4.70,1.33,40.75,-33.09,5
-0.03,-0.46,0.97,127.69,281.25,150.57,13.22,30.97,-35.00,5
0.78,-0.75,0.31,-42.54,79.41,38.15,20.26,32.51,-30.75,5
0.18,-0.34,1.25,-99.55,-15.63,18.55,24.45,27.80,-30.05,5
0.57,-0.55,0.29,-185.06,10.07,-28.69,27.48,23.32,-28.78,5
0.46,-0.70,0.55,-42.91,28.69,49.62,27.14,17.30,-28.39,5
0.64,-0.51,0.77,-46.14,63.84,28.75,28.81,15.16,-28.52,5
0.67,0.16,0.48,-75.74,43.40,160.77,31.60,9.46,-24.16,5
0.88,-0.41,0.58,8.18,53.04,216.74,29.92,0.50,-22.80,5
0.83,0.42,0.38,50.35,71.29,263.61,23.28,-11.32,-19.87,5
0.25,0.28,0.77,51.27,96.80,88.99,15.48,-12.62,-20.67,5
1.13,-0.42,-0.50,-463.01,210.69,-651.61,30.05,-10.01,-12.81,5
0.76,-0.49,-0.10,-276.37,-10.50,-261.60,41.24,31.68,6.18,5
0.37,-0.97,0.34,-158.20,61.10,-214.05,30.75,47.75,-2.91,5
-0.01,-0.58,0.64,-122.74,-29.72,-203.31,15.53,54.99,-10.55,5
-0.40,-0.67,0.62,-6.65,-186.28,-60.06,11.83,55.20,-12.96,5
-0.67,-0.50,0.68,-32.23,-8.30,-134.09,3.64,55.33,-15.39,5
-0.74,-0.33,0.55,-69.76,-15.01,-82.34,-7.41,54.79,-17.96,5
-0.83,-0.53,0.66,-0.06,59.14,59.08,-6.98,54.52,-20.13,5
-0.26,-0.47,0.65,143.01,138.92,188.60,-0.49,53.70,-19.82,5
0.06,-1.36,0.10,535.83,94.36,223.94,22.35,54.10,1.44,5
0.51,-0.98,-0.21,102.42,78.31,-13.37,29.05,43.01,22.53,5
0.75,-1.51,-0.82,586.24,-13.06,-106.26,29.77,29.03,33.19,5
0.96,0.61,-0.42,732.12,-288.02,34.97,30.85,19.03,32.69,5
0.84,0.49,-0.53,183.96,-88.68,-8.79,38.32,-2.45,-3.61,5
0.78,-0.07,0.34,226.62,-107.85,111.15,33.76,10.01,-24.19,5
0.91,0.58,0.48,59.51,-82.95,148.93,30.24,4.37,-27.06,5
0.90,0.15,1.60,419.31,11.54,153.38,24.80,13.12,-31.98,5
0.72,-0.10,1.23,99.00,-47.67,81.85,26.50,34.72,-28.65,5
0.27,0.43,0.64,3.72,69.46,87.77,29.37,40.94,-20.21,5
0.71,-0.12,1.75,305.73,47.55,19.90,31.70,38.37,-20.64,5
0.59,-0.66,0.75,124.08,41.87,28.26,31.54,49.38,1.56,5
0.49,0.35,0.18,385.44,-75.38,-0.06,31.26,49.91,3.02,5
0.41,-0.48,0.12,89.60,-66.59,-213.20,24.10,51.65,19.52,5
0.07,-1.11,-0.08,151.31,26.67,-66.35,13.98,52.16,28.21,5
0.01,-0.93,-0.01,65.31,67.08,-95.58,3.52,51.77,30.55,5
0.04,-0.67,0.30,-308.96,-110.29,-46.02,-2.92,58.72,19.65,5
-0.29,-0.70,0.63,-121.77,-121.22,-44.86,-8.97,60.91,-4.64,5
-0.86,-0.59,-0.07,36.50,-430.24,-6.16,-17.26,59.94,-4.75,5
-1.66,-0.78,0.02,51.64,-469.85,-47.18,-12.07,53.83,27.45,5
-0.42,-0.44,-0.66,-68.48,15.75,-63.29,-11.84,54.74,26.46,5
-0.44,-0.50,-0.22,22.03,-43.64,-136.96,-18.92,55.68,17.94,5
-0.53,-0.17,-0.72,-35.10,-261.35,-156.25,-25.78,49.77,24.01,5
-0.20,-0.53,-0.84,-232.79,-237.43,10.50,-19.54,52.56,25.73,5
-0.17,-1.17,-0.50,-77.39,-332.52,-120.12,-14.09,55.32,24.50,5
0.23,-0.71,-0.92,-293.70,-110.84,-42.48,-7.41,59.70,17.32,5
0.11,-1.10,-0.26,-204.53,88.13,-43.76,-11.67,61.50,7.64,5
-0.04,-1.29,-0.25,-82.95,227.11,-74.65,-14.83,59.70,-3.89,5
-0.25,-1.09,-0.02,-42.60,115.54,30.46,-15.71,56.34,-11.67,5
0.11,-1.10,0.26,-99.18,-44.07,-55.18,-15.03,55.90,-14.59,5
0.20,-0.44,-0.59,-249.69,349.43,-139.83,-13.53,46.04,-25.26,5
-0.18,-0.93,0.74,-53.65,129.82,-115.97,-6.53,35.27,-32.69,5
-0.45,-0.65,0.43,-31.31,141.36,-174.44,5.70,30.24,-33.85,5
-0.02,-1.08,0.35,-536.07,222.96,-33.94,9.84,30.24,-34.63,5
0.08,-0.07,0.90,-36.80,250.98,80.14,24.89,7.85,-28.58,5
0.56,0.19,0.75,-24.23,162.35,44.56,36.24,2.73,-13.10,5
0.21,0.18,0.74,44.92,-82.52,-28.63,36.91,0.90,-13.51,5
0.52,-0.29,1.21,-91.43,-33.20,56.58,35.77,3.92,-16.13,5
0.08,0.25,0.89,55.54,1.10,123.78,27.56,-3.92,-22.46,5
0.48,0.37,0.84,-26.67,100.04,-12.76,28.63,-5.69,-19.43,5
0.33,0.10,1.02,-12.82,130.74,138.06,28.43,-10.40,-15.52,5
0.37,0.75,0.33,-54.44,356.08,100.22,28.20,-15.11,-8.09,5
1.17,0.37,-0.12,134.40,202.51,9.83,24.56,-17.92,13.48,5
1.00,-0.24,0.88,14.83,40.95,78.98,20.25,-22.58,4.94,5
-0.12,1.49,0.12,11.96,148.07,31.43,10.14,-25.96,5.79,5
0.26,0.52,0.32,40.28,-71.96,-61.22,13.48,-25.61,4.10,5
0.57,0.50,-0.02,115.91,353.58,22.28,16.02,-22.94,1.98,5
1.07,0.46,-0.39,70.07,-2.62,-16.66,20.90,-20.48,-3.67,5
0.68,0.90,0.02,-56.82,80.20,26.31,22.08,-19.95,-3.33,5
-0.73,1.43,-1.01,-92.04,-163.21,-21.42,22.77,-19.85,1.21,5
0.73,1.60,-3.24,-140.44,133.79,-109.62,21.56,-20.59,2.39,5
0.83,0.13,-0.48,101.20,-98.88,257.63,24.77,-18.70,3.56,5
0.76,2.20,-1.23,443.66,150.70,211.79,3.36,-24.01,-12.33,5
-0.02,0.15,-0.24,148.56,20.63,164.67,-6.74,-18.40,-17.87,5
-2.55,-0.67,2.79,15.87,-43.70,-196.35,-9.61,-9.11,-26.06,5
0.05,-0.37,0.67,-70.80,-92.29,-348.69,-8.07,-10.77,-27.34,5
2.99,0.53,-0.09,-41.75,-105.29,-221.68,8.51,-10.71,-27.62,5
2.10,0.33,-0.04,40.34,183.41,101.75,9.64,-10.45,-26.90,5
0.11,0.73,0.49,294.92,91.13,219.67,10.08,-8.64,-29.50,5
-0.67,-0.65,0.62,222.47,-218.44,432.07,4.98,2.45,-34.63,5
-0.76,-0.73,0.86,57.43,-266.78,216.43,-23.96,24.78,-30.52,5
-0.55,0.33,1.22,-226.99,-183.23,100.22,-33.45,20.96,-22.68,5
-0.74,0.12,-0.03,-151.00,-218.20,37.29,-38.55,25.34,-15.34,5
-0.78,-0.33,-0.97,-608.83,-141.85,-471.25,-39.66,2.69,-1.03,5
-0.29,0.22,-1.36,4.46,157.65,-132.20,-26.50,-11.69,13.81,5
-2.27,1.91,-0.47,582.28,-217.10,-346.37,-10.57,-20.72,-6.37,5
0.63,0.74,-0.23,-63.48,225.34,43.82,-4.99,-19.87,-13.26,5
-1.30,0.60,-1.31,174.68,50.66,-52.61,-4.54,-20.89,-11.66,5
0.19,-0.66,1.24,272.89,162.90,-381.53,6.57,-6.07,-30.08,5
2.98,-1.23,1.05,174.32,34.97,138.43,19.75,14.78,-31.52,5
0.09,-1.38,1.50,47.24,11.84,483.52,17.83,8.40,-33.28,5
-1.74,-0.77,0.69,-270.39,10.68,221.44,7.48,-2.05,-34.73,5
-0.79,-0.20,0.64,-133.18,-67.50,46.94,-2.36,-15.31,-21.91,5
-1.24,0.57,-0.15,229.43,-72.14,225.40,-12.19,-17.19,-15.94,5
-1.95,0.53,0.40,439.27,130.62,57.86,-18.57,11.60,-34.31,5
-1.61,0.63,0.55,-47.67,86.61,179.26,-17.27,20.96,-36.02,5
-1.28,-0.45,-0.34,-55.79,-172.79,-65.55,-17.44,17.66,-34.46,5
0.20,-0.68,-0.03,-133.12,117.86,-60.00,-15.73,12.22,-32.40,5
3.32,0.90,1.82,649.84,410.40,239.44,5.76,24.65,-36.67,5
0.98,-1.53,0.64,129.46,-278.32,286.32,12.83,34.59,-34.75,5
0.45,-2.24,0.13,209.96,-147.40,217.83,3.33,34.18,-36.36,5
-0.33,-2.28,-0.03,-76.35,-165.95,-130.19,-7.56,29.86,-35.64,5
-0.20,-1.42,1.43,-57.62,-13.37,-284.18,-13.39,23.05,-35.39,5
0.39,-0.19,0.87,15.87,-110.84,-374.51,-18.96,13.82,-32.37,5
1.41,0.98,0.28,140.81,41.63,138.49,-19.01,4.72,-28.17,5
-0.28,0.27,-0.03,20.20,-71.72,65.43,-18.76,20.91,-33.97,5
-1.20,-1.77,1.14,85.33,154.48,120.54,-8.61,18.64,-38.13,5
-2.30,-3.05,1.63,93.99,93.14,91.25,-0.35,20.36,-37.72,5
-0.90,-1.06,1.59,-73.79,-88.50,-318.18,10.27,33.50,-39.22,5
-0.17,-0.25,0.21,-172.61,-264.40,-177.80,-13.02,35.00,-33.97,5
1.27,2.55,-0.60,-120.73,85.33,-38.70,-22.01,13.23,-29.55,5
0.69,-1.11,1.04,182.37,104.00,503.78,-17.61,20.95,-34.58,5
0.84,-0.85,0.52,-270.32,-127.26,522.16,-7.85,28.14,-35.68,5
0.18,-0.57,1.01,-131.84,-132.87,171.87,-18.48,16.80,-32.98,5
-0.03,-0.12,0.82,20.08,109.74,264.59,-13.61,22.24,-34.24,5
0.88,-0.09,-0.42,206.05,233.52,105.16,-13.51,15.77,-36.82,5
0.09,0.03,0.07,-237.92,134.58,112.49,6.68,26.38,-34.97,5
2.72,-0.88,2.02,56.34,85.08,-36.68,16.54,18.33,-32.70,5
1.73,-0.45,0.53,-110.84,-78.74,-368.29,15.61,20.81,-35.63,5
0.13,0.01,0.86,-133.61,-191.53,-263.92,11.23,24.58,-36.57,5
-0.60,1.08,-0.76,-196.59,-354.25,-280.15,-9.30,17.46,-37.10,5
-1.75,0.79,0.92,153.38,-226.99,-225.28,-22.75,3.33,-27.42,5
-0.79,0.79,-1.25,-578.74,-41.20,-281.62,-14.10,-23.21,4.72,5
-0.55,1.76,-0.21,-265.08,131.47,65.67,-0.31,-18.38,29.54,5
-0.68,0.65,-0.64,-46.02,176.45,116.21,-8.19,-13.56,31.69,5
-1.64,-1.16,1.69,607.30,289.61,248.66,-28.37,-11.33,12.95,5
-1.49,-0.33,-0.08,494.32,175.78,-36.56,-38.34,13.31,-13.68,5
-1.04,-1.11,0.38,518.43,-334.35,46.57,-37.62,40.47,-2.36,5
0.01,0.22,-0.53,140.93,-111.45,-106.02,-38.94,35.40,11.89,5
-0.08,-0.14,-0.51,54.81,207.15,-254.88,-40.30,21.14,16.54,5
-0.43,-0.36,-0.55,-123.96,-150.82,-133.24,-38.13,2.16,9.99,5
0.74,0.64,-2.15,-353.45,-810.36,-66.53,-16.72,0.88,37.94,5
1.75,-0.59,-0.88,57.92,21.97,-69.76,6.88,12.07,44.26,5
1.48,-0.49,-0.98,-14.47,-4.76,24.60,8.76,14.34,43.58,5
1.22,-0.17,-1.59,198.49,173.58,-34.48,7.69,9.99,44.89,5
-0.31,-0.08,-0.82,473.75,435.67,-209.90,-7.12,-16.02,26.65,5
0.21,-0.09,-0.27,272.64,318.30,-304.93,12.38,-22.78,-2.98,5
0.78,-0.29,0.07,55.42,515.75,-189.76,23.05,-18.07,-1.77,5
1.21,-0.47,-1.10,183.72,217.04,-15.14,29.97,-12.72,16.42,5
0.03,1.53,-0.36,317.75,498.78,-105.83,23.73,-16.75,22.49,5
-1.10,1.55,1.58,145.08,348.63,259.09,-4.68,-24.43,4.71,5
-0.26,-0.33,0.60,573.24,330.87,-149.17,-4.96,-22.66,-9.80,5
1.15,-2.71,0.32,582.46,271.48,-300.78,27.26,17.46,-30.20,5
0.63,-0.86,1.27,276.43,-50.17,-262.45,21.64,54.31,-1.46,5
0.67,-0.61,-0.57,-34.18,-205.32,-235.41,-8.28,60.60,1.97,5
0.18,-0.52,-0.09,-62.07,-231.38,-286.44,-20.76,55.36,9.22,5
1.02,-0.93,-1.13,-147.95,213.07,432.86,-31.46,44.78,14.81,5
-0.10,-1.19,0.35,-166.38,101.68,-159.00,-18.52,55.65,9.46,5
-0.51,-1.96,-0.22,-204.35,79.28,-76.42,-30.44,48.96,-8.31,5
-1.34,-1.52,0.05,-288.64,80.63,-53.16,-32.32,40.87,-17.38,5
-0.70,-0.81,0.78,-39.43,171.39,252.62,-22.11,31.35,-31.13,5
0.41,-2.46,0.74,87.71,223.82,246.77,-7.28,30.68,-34.81,5
0.27,-1.66,0.51,150.09,69.95,-146.06,12.02,41.71,-32.58,5
0.29,-0.36,-0.60,-287.60,4.82,-153.08,8.72,55.94,-22.27,5
-0.22,-0.00,0.16,-216.00,-107.97,-292.66,-4.63,50.55,-24.99,5
-0.82,1.02,-0.19,-312.32,-237.49,-84.59,-26.26,28.16,-28.37,5
-0.14,0.56,0.08,-305.18,31.98,167.72,-34.22,16.41,-23.08,5
0.07,0.10,1.30,-130.43,17.15,304.99,-34.19,16.37,-25.28,5
0.93,-2.63,2.25,-29.48,-16.97,149.66,-22.19,37.45,-26.90,5
0.42,-1.34,1.12,56.82,-35.71,-182.43,-19.26,37.21,-28.94,5
-1.41,-0.54,0.17,55.36,32.23,-5.92,-23.47,38.01,-26.45,5
-0.25,0.15,1.33,116.52,232.24,38.15,-21.17,36.34,-28.37,5
1.08,-0.83,0.79,134.77,121.52,213.50,-4.97,40.31,-31.53,5
0.48,-0.67,0.61,-52.80,75.74,-150.76,2.72,39.45,-31.49,5
-0.13,-0.99,0.96,-87.65,-135.01,-205.99,-7.40,31.81,-34.52,5
-0.83,-0.05,1.14,-57.62,-33.02,51.88,-17.66,17.44,-33.83,5
-1.03,-0.25,1.21,-34.18,-18.31,-243.59,-13.13,1.37,-30.90,5
-1.70,-0.35,0.65,99.43,-65.98,115.78,-5.81,-3.83,-28.75,5
-0.88,-0.25,0.09,-51.51,-11.96,-51.76,-5.75,-1.09,-31.67,5
0.22,0.00,0.99,38.94,12.39,-448.43,-3.63,-1.53,-34.51,5
1.41,1.29,0.75,11.29,168.03,-268.19,3.08,-2.49,-36.21,5
0.82,-0.11,0.43,105.65,-119.81,16.42,18.20,4.64,-34.70,5
-0.57,-0.52,0.44,-257.63,373.60,-145.20,17.68,6.99,-35.05,5
0.29,0.90,1.04,-139.89,-242.43,-51.39,22.50,-2.65,-28.17,5
-0.98,1.42,-0.01,-222.23,-329.35,167.97,11.68,-10.47,-24.71,5
-0.92,0.61,-0.00,3.05,79.53,-135.38,-9.03,-16.70,-18.27,5
-1.01,-0.06,0.69,-68.30,262.51,-118.41,-4.52,-10.19,-25.48,5
0.48,-0.14,-0.74,65.49,28.69,-16.66,12.79,-13.75,-19.91,5
1.29,-0.22,-1.27,116.88,-69.46,-77.88,13.07,-7.76,-28.33,5
-1.76,0.89,2.34,241.21,70.01,233.58,8.06,2.87,-35.94,5
-1.37,0.43,1.59,37.78,-132.63,-55.97,7.17,13.06,-35.73,5
-0.29,0.06,0.74,-19.65,420.59,-137.39,8.86,15.53,-38.53,5
0.51,0.11,0.59,-50.11,395.02,81.42,39.25,9.89,-15.99,5
-0.03,0.37,0.26,51.82,351.87,53.71,42.79,8.79,-8.19,5
1.37,0.37,-0.05,-48.10,386.05,9.52,45.64,9.48,8.18,5
1.66,1.05,0.27,58.59,-88.68,36.32,36.90,6.51,30.03,5
1.77,1.02,1.10,129.70,-350.95,9.83,43.71,0.06,-3.33,5
0.32,0.39,0.60,-50.54,-331.12,89.29,35.24,-3.08,-18.25,5
-0.35,-0.01,-0.31,44.07,6.16,5.74,15.98,-5.38,-27.37,5
-0.67,0.23,-0.02,-84.72,221.98,-24.48,22.13,-3.44,-26.45,5
1.27,0.76,-0.06,123.17,214.60,-201.97,41.16,-0.48,-6.87,5
1.85,0.53,0.53,26.79,311.46,55.05,46.09,8.03,9.27,5
0.29,-0.43,-0.22,394.96,177.00,-65.37,41.11,11.41,25.96,5
0.85,-0.24,-0.98,218.44,-226.81,-79.59,37.88,10.05,32.39,5
0.36,0.66,-0.43,403.38,-173.10,227.48,40.95,-7.26,-4.94,5
0.63,-0.28,0.55,87.59,-85.75,-132.14,40.09,-4.28,-11.04,5
1.02,-0.35,0.59,-98.63,128.30,3.36,40.72,4.81,-14.90,5
0.88,0.38,0.09,315.61,-18.43,-96.74,44.52,5.57,-7.57,5
1.06,-0.82,-0.19,187.19,114.01,87.95,44.36,13.39,-5.36,5
1.02,-0.60,-0.21,100.65,-146.12,151.86,43.42,9.52,-7.79,5
1.05,-0.11,-0.25,52.86,82.03,39.86,38.15,-0.06,-13.98,5
0.85,0.11,-0.31,-160.46,327.33,76.90,41.76,-3.94,0.23,5
